%time,field.header.seq,field.header.stamp,field.header.frame_id,field.orientation.x,field.orientation.y,field.orientation.z,field.orientation.w,field.orientation_covariance0,field.orientation_covariance1,field.orientation_covariance2,field.orientation_covariance3,field.orientation_covariance4,field.orientation_covariance5,field.orientation_covariance6,field.orientation_covariance7,field.orientation_covariance8,field.angular_velocity.x,field.angular_velocity.y,field.angular_velocity.z,field.angular_velocity_covariance0,field.angular_velocity_covariance1,field.angular_velocity_covariance2,field.angular_velocity_covariance3,field.angular_velocity_covariance4,field.angular_velocity_covariance5,field.angular_velocity_covariance6,field.angular_velocity_covariance7,field.angular_velocity_covariance8,field.linear_acceleration.x,field.linear_acceleration.y,field.linear_acceleration.z,field.linear_acceleration_covariance0,field.linear_acceleration_covariance1,field.linear_acceleration_covariance2,field.linear_acceleration_covariance3,field.linear_acceleration_covariance4,field.linear_acceleration_covariance5,field.linear_acceleration_covariance6,field.linear_acceleration_covariance7,field.linear_acceleration_covariance8
1581180792034334632,1,0,,0.265605749903,-0.196347682533,-0.125569527574,-0.935485685047,0.0,0.0,0.0,0.0,0.0,0.0,0.0,0.0,0.0,0.001144,-0.000259,8e-05,0.0,0.0,0.0,0.0,0.0,0.0,0.0,0.0,0.0,0.086,0.084,-9.79,0.0,0.0,0.0,0.0,0.0,0.0,0.0,0.0,0.0
1581180792089404539,2,0,,0.265034174985,-0.196070997967,-0.12488651211,-0.935797205029,0.0,0.0,0.0,0.0,0.0,0.0,0.0,0.0,0.0,0.000339,-0.000758,-0.000242,0.0,0.0,0.0,0.0,0.0,0.0,0.0,0.0,0.0,0.087,0.097,-9.771,0.0,0.0,0.0,0.0,0.0,0.0,0.0,0.0,0.0
1581180792148914012,3,0,,0.264173447569,-0.196662156578,-0.122916353465,-0.936177310033,0.0,0.0,0.0,0.0,0.0,0.0,0.0,0.0,0.0,0.000863,-0.00041,-0.000872,0.0,0.0,0.0,0.0,0.0,0.0,0.0,0.0,0.0,0.103,0.075,-9.772,0.0,0.0,0.0,0.0,0.0,0.0,0.0,0.0,0.0
1581180792207569296,4,0,,0.263439054336,-0.196993808777,-0.123772418497,-0.936201737006,0.0,0.0,0.0,0.0,0.0,0.0,0.0,0.0,0.0,0.000552,-0.000668,0.000172,0.0,0.0,0.0,0.0,0.0,0.0,0.0,0.0,0.0,0.095,0.091,-9.797,0.0,0.0,0.0,0.0,0.0,0.0,0.0,0.0,0.0
1581180792273660635,5,0,,0.263350380197,-0.198069700224,-0.12353714396,-0.936030739434,0.0,0.0,0.0,0.0,0.0,0.0,0.0,0.0,0.0,-0.000452,-0.000783,-0.000196,0.0,0.0,0.0,0.0,0.0,0.0,0.0,0.0,0.0,0.089,0.092,-9.832,0.0,0.0,0.0,0.0,0.0,0.0,0.0,0.0,0.0
1581180792337622576,6,0,,0.263818362628,-0.198007906896,-0.123636163364,-0.935898947246,0.0,0.0,0.0,0.0,0.0,0.0,0.0,0.0,0.0,-0.000604,0.001804,0.000148,0.0,0.0,0.0,0.0,0.0,0.0,0.0,0.0,0.0,0.082,0.07,-9.804,0.0,0.0,0.0,0.0,0.0,0.0,0.0,0.0,0.0
1581180792403603945,7,0,,0.263449382124,-0.197938000281,-0.124005143868,-0.935968853861,0.0,0.0,0.0,0.0,0.0,0.0,0.0,0.0,0.0,0.000144,0.001781,-0.000148,0.0,0.0,0.0,0.0,0.0,0.0,0.0,0.0,0.0,0.086,0.074,-9.788,0.0,0.0,0.0,0.0,0.0,0.0,0.0,0.0,0.0
1581180792466488050,8,0,,0.26344425116,-0.197465929212,-0.123888796669,-0.936085412444,0.0,0.0,0.0,0.0,0.0,0.0,0.0,0.0,0.0,0.000336,-0.001063,-0.000693,0.0,0.0,0.0,0.0,0.0,0.0,0.0,0.0,0.0,0.074,0.074,-9.792,0.0,0.0,0.0,0.0,0.0,0.0,0.0,0.0,0.0
1581180792530108435,9,0,,0.262877378751,-0.197659312316,-0.123321924259,-0.936278795548,0.0,0.0,0.0,0.0,0.0,0.0,0.0,0.0,0.0,0.001043,-0.000119,-0.000874,0.0,0.0,0.0,0.0,0.0,0.0,0.0,0.0,0.0,0.089,0.085,-9.754,0.0,0.0,0.0,0.0,0.0,0.0,0.0,0.0,0.0
1581180792595552257,10,0,,0.262679588033,-0.197922090821,-0.122385583959,-0.936401649312,0.0,0.0,0.0,0.0,0.0,0.0,0.0,0.0,0.0,0.000635,0.000698,3.3e-05,0.0,0.0,0.0,0.0,0.0,0.0,0.0,0.0,0.0,0.096,0.111,-9.811,0.0,0.0,0.0,0.0,0.0,0.0,0.0,0.0,0.0
1581180792660149034,11,0,,0.26295371436,-0.198596004494,-0.121664836655,-0.936275941497,0.0,0.0,0.0,0.0,0.0,0.0,0.0,0.0,0.0,5e-05,5.2e-05,-8.3e-05,0.0,0.0,0.0,0.0,0.0,0.0,0.0,0.0,0.0,0.068,0.097,-9.785,0.0,0.0,0.0,0.0,0.0,0.0,0.0,0.0,0.0
1581180792723360993,12,0,,0.262688484447,-0.198866314094,-0.122618125038,-0.93616865183,0.0,0.0,0.0,0.0,0.0,0.0,0.0,0.0,0.0,0.000331,0.001593,-0.000537,0.0,0.0,0.0,0.0,0.0,0.0,0.0,0.0,0.0,0.081,0.103,-9.787,0.0,0.0,0.0,0.0,0.0,0.0,0.0,0.0,0.0
1581180792789741200,13,0,,0.263355209286,-0.198541724282,-0.12365351854,-0.935914005031,0.0,0.0,0.0,0.0,0.0,0.0,0.0,0.0,0.0,0.000871,0.001482,0.000296,0.0,0.0,0.0,0.0,0.0,0.0,0.0,0.0,0.0,0.072,0.106,-9.775,0.0,0.0,0.0,0.0,0.0,0.0,0.0,0.0,0.0
1581180792858106046,14,0,,0.263160827192,-0.199276959126,-0.12283400344,-0.935920338593,0.0,0.0,0.0,0.0,0.0,0.0,0.0,0.0,0.0,0.000542,0.002175,-0.000383,0.0,0.0,0.0,0.0,0.0,0.0,0.0,0.0,0.0,0.048,0.105,-9.738,0.0,0.0,0.0,0.0,0.0,0.0,0.0,0.0,0.0
1581180792919814867,15,0,,0.263355209286,-0.198541724282,-0.12365351854,-0.935914005031,0.0,0.0,0.0,0.0,0.0,0.0,0.0,0.0,0.0,-0.00098,-0.000236,-0.000272,0.0,0.0,0.0,0.0,0.0,0.0,0.0,0.0,0.0,0.076,0.091,-9.791,0.0,0.0,0.0,0.0,0.0,0.0,0.0,0.0,0.0
1581180792984214377,16,0,,0.263564023856,-0.199222159004,-0.124821792665,-0.935555480325,0.0,0.0,0.0,0.0,0.0,0.0,0.0,0.0,0.0,9.1e-05,0.001534,-0.001555,0.0,0.0,0.0,0.0,0.0,0.0,0.0,0.0,0.0,0.083,0.094,-9.786,0.0,0.0,0.0,0.0,0.0,0.0,0.0,0.0,0.0
1581180793046307705,17,0,,0.263564023856,-0.199222159004,-0.124821792665,-0.935555480325,0.0,0.0,0.0,0.0,0.0,0.0,0.0,0.0,0.0,0.000282,0.000259,0.001056,0.0,0.0,0.0,0.0,0.0,0.0,0.0,0.0,0.0,0.078,0.082,-9.763,0.0,0.0,0.0,0.0,0.0,0.0,0.0,0.0,0.0
1581180793116720171,18,0,,0.263464379835,-0.199353916108,-0.124353999342,-0.935617774274,0.0,0.0,0.0,0.0,0.0,0.0,0.0,0.0,0.0,0.000445,-0.000494,6.2e-05,0.0,0.0,0.0,0.0,0.0,0.0,0.0,0.0,0.0,0.078,0.106,-9.798,0.0,0.0,0.0,0.0,0.0,0.0,0.0,0.0,0.0
1581180793175782188,19,0,,0.263624521599,-0.198743596557,-0.12281693001,-0.935905495305,0.0,0.0,0.0,0.0,0.0,0.0,0.0,0.0,0.0,-5.8e-05,0.001463,-0.000615,0.0,0.0,0.0,0.0,0.0,0.0,0.0,0.0,0.0,0.089,0.1,-9.812,0.0,0.0,0.0,0.0,0.0,0.0,0.0,0.0,0.0
1581180793237018311,20,0,,0.263160827192,-0.199276959126,-0.12283400344,-0.935920338593,0.0,0.0,0.0,0.0,0.0,0.0,0.0,0.0,0.0,-4.3e-05,-0.000489,-0.000917,0.0,0.0,0.0,0.0,0.0,0.0,0.0,0.0,0.0,0.054,0.09,-9.783,0.0,0.0,0.0,0.0,0.0,0.0,0.0,0.0,0.0
1581180793303287639,21,0,,0.263160827192,-0.199276959126,-0.12283400344,-0.935920338593,0.0,0.0,0.0,0.0,0.0,0.0,0.0,0.0,0.0,0.000736,-7.1e-05,3.2e-05,0.0,0.0,0.0,0.0,0.0,0.0,0.0,0.0,0.0,0.076,0.079,-9.783,0.0,0.0,0.0,0.0,0.0,0.0,0.0,0.0,0.0
1581180793365168313,22,0,,0.263632921387,-0.199687388073,-0.12305029238,-0.935671553137,0.0,0.0,0.0,0.0,0.0,0.0,0.0,0.0,0.0,-0.00098,-0.000143,2e-05,0.0,0.0,0.0,0.0,0.0,0.0,0.0,0.0,0.0,0.082,0.087,-9.779,0.0,0.0,0.0,0.0,0.0,0.0,0.0,0.0,0.0
1581180793429637669,23,0,,0.263239268568,-0.201157860404,-0.121412413029,-0.935681371325,0.0,0.0,0.0,0.0,0.0,0.0,0.0,0.0,0.0,0.000939,0.001301,-0.000957,0.0,0.0,0.0,0.0,0.0,0.0,0.0,0.0,0.0,0.073,0.079,-9.804,0.0,0.0,0.0,0.0,0.0,0.0,0.0,0.0,0.0
1581180793493948865,24,0,,0.262934851843,-0.201080710729,-0.119891739915,-0.935979584264,0.0,0.0,0.0,0.0,0.0,0.0,0.0,0.0,0.0,-0.000622,0.00102,0.001261,0.0,0.0,0.0,0.0,0.0,0.0,0.0,0.0,0.0,0.06,0.1,-9.792,0.0,0.0,0.0,0.0,0.0,0.0,0.0,0.0,0.0
1581180793557516445,25,0,,0.263135801053,-0.20081767538,-0.120827659397,-0.935859224554,0.0,0.0,0.0,0.0,0.0,0.0,0.0,0.0,0.0,0.000298,-0.000666,-2.1e-05,0.0,0.0,0.0,0.0,0.0,0.0,0.0,0.0,0.0,0.072,0.104,-9.778,0.0,0.0,0.0,0.0,0.0,0.0,0.0,0.0,0.0
1581180793619794753,26,0,,0.263710043315,-0.201568798324,-0.121630021416,-0.935432076897,0.0,0.0,0.0,0.0,0.0,0.0,0.0,0.0,0.0,0.000569,-0.000922,0.000627,0.0,0.0,0.0,0.0,0.0,0.0,0.0,0.0,0.0,0.038,0.099,-9.794,0.0,0.0,0.0,0.0,0.0,0.0,0.0,0.0,0.0
1581180793684239706,27,0,,0.264074266973,-0.201168409707,-0.121145786135,-0.935478354085,0.0,0.0,0.0,0.0,0.0,0.0,0.0,0.0,0.0,-0.001013,0.001238,-0.000379,0.0,0.0,0.0,0.0,0.0,0.0,0.0,0.0,0.0,0.068,0.1,-9.785,0.0,0.0,0.0,0.0,0.0,0.0,0.0,0.0,0.0
1581180793748485513,28,0,,0.263807591926,-0.200965250386,-0.121980736387,-0.935488761306,0.0,0.0,0.0,0.0,0.0,0.0,0.0,0.0,0.0,0.000989,0.000883,0.000342,0.0,0.0,0.0,0.0,0.0,0.0,0.0,0.0,0.0,0.094,0.082,-9.789,0.0,0.0,0.0,0.0,0.0,0.0,0.0,0.0,0.0
1581180793812257096,29,0,,0.263904536941,-0.200361605201,-0.122331507866,-0.935545094972,0.0,0.0,0.0,0.0,0.0,0.0,0.0,0.0,0.0,-0.001795,-0.001384,0.000233,0.0,0.0,0.0,0.0,0.0,0.0,0.0,0.0,0.0,0.072,0.1,-9.799,0.0,0.0,0.0,0.0,0.0,0.0,0.0,0.0,0.0
1581180793877419900,30,0,,0.263807591926,-0.200965250386,-0.121980736387,-0.935488761306,0.0,0.0,0.0,0.0,0.0,0.0,0.0,0.0,0.0,-0.000231,0.001096,-0.001617,0.0,0.0,0.0,0.0,0.0,0.0,0.0,0.0,0.0,0.076,0.103,-9.796,0.0,0.0,0.0,0.0,0.0,0.0,0.0,0.0,0.0
1581180793943670248,31,0,,0.264208994544,-0.200437233623,-0.123851468701,-0.935242929019,0.0,0.0,0.0,0.0,0.0,0.0,0.0,0.0,0.0,8.9e-05,-0.000202,-2.7e-05,0.0,0.0,0.0,0.0,0.0,0.0,0.0,0.0,0.0,0.079,0.089,-9.819,0.0,0.0,0.0,0.0,0.0,0.0,0.0,0.0,0.0
1581180794009164964,32,0,,0.264404615731,-0.199701218416,-0.124669985882,-0.935236342944,0.0,0.0,0.0,0.0,0.0,0.0,0.0,0.0,0.0,-9e-05,0.00244,-0.000215,0.0,0.0,0.0,0.0,0.0,0.0,0.0,0.0,0.0,0.079,0.07,-9.802,0.0,0.0,0.0,0.0,0.0,0.0,0.0,0.0,0.0
1581180794074879067,33,0,,0.2638459976,-0.200838955105,-0.124335362172,-0.935195017831,0.0,0.0,0.0,0.0,0.0,0.0,0.0,0.0,0.0,0.000764,0.001016,0.000554,0.0,0.0,0.0,0.0,0.0,0.0,0.0,0.0,0.0,0.07,0.077,-9.786,0.0,0.0,0.0,0.0,0.0,0.0,0.0,0.0,0.0
1581180794136899737,34,0,,0.263181296689,-0.201636104225,-0.123415845114,-0.935332569582,0.0,0.0,0.0,0.0,0.0,0.0,0.0,0.0,0.0,-6.9e-05,0.000728,0.00011,0.0,0.0,0.0,0.0,0.0,0.0,0.0,0.0,0.0,0.062,0.094,-9.771,0.0,0.0,0.0,0.0,0.0,0.0,0.0,0.0,0.0
1581180794205002725,35,0,,0.262915163923,-0.201434972538,-0.124250413869,-0.935340260585,0.0,0.0,0.0,0.0,0.0,0.0,0.0,0.0,0.0,-0.000103,0.000307,-0.000484,0.0,0.0,0.0,0.0,0.0,0.0,0.0,0.0,0.0,0.068,0.104,-9.803,0.0,0.0,0.0,0.0,0.0,0.0,0.0,0.0,0.0
1581180794266811564,36,0,,0.262713597526,-0.201697786941,-0.123315011639,-0.935464043308,0.0,0.0,0.0,0.0,0.0,0.0,0.0,0.0,0.0,-0.000787,-0.000607,-0.000677,0.0,0.0,0.0,0.0,0.0,0.0,0.0,0.0,0.0,0.082,0.099,-9.807,0.0,0.0,0.0,0.0,0.0,0.0,0.0,0.0,0.0
1581180794333530162,37,0,,0.263382801169,-0.201372822154,-0.12435111582,-0.935208686091,0.0,0.0,0.0,0.0,0.0,0.0,0.0,0.0,0.0,0.000119,0.001552,-0.000405,0.0,0.0,0.0,0.0,0.0,0.0,0.0,0.0,0.0,0.055,0.088,-9.79,0.0,0.0,0.0,0.0,0.0,0.0,0.0,0.0,0.0
1581180794396714045,38,0,,0.263222155461,-0.201512098306,-0.125769027991,-0.93503428959,0.0,0.0,0.0,0.0,0.0,0.0,0.0,0.0,0.0,-0.00011,-0.000615,0.001115,0.0,0.0,0.0,0.0,0.0,0.0,0.0,0.0,0.0,0.09,0.097,-9.787,0.0,0.0,0.0,0.0,0.0,0.0,0.0,0.0,0.0
1581180794459820755,39,0,,0.263227224627,-0.201983772909,-0.125884740589,-0.934915512645,0.0,0.0,0.0,0.0,0.0,0.0,0.0,0.0,0.0,0.00027,0.001405,7.2e-05,0.0,0.0,0.0,0.0,0.0,0.0,0.0,0.0,0.0,0.072,0.096,-9.792,0.0,0.0,0.0,0.0,0.0,0.0,0.0,0.0,0.0
1581180794521720376,40,0,,0.262759733987,-0.202046690028,-0.125783732971,-0.935047009387,0.0,0.0,0.0,0.0,0.0,0.0,0.0,0.0,0.0,0.001965,-0.000159,-0.002038,0.0,0.0,0.0,0.0,0.0,0.0,0.0,0.0,0.0,0.119,0.122,-9.796,0.0,0.0,0.0,0.0,0.0,0.0,0.0,0.0,0.0
1581180794586364237,41,0,,0.263130967388,-0.202586987816,-0.125533007733,-0.934859385329,0.0,0.0,0.0,0.0,0.0,0.0,0.0,0.0,0.0,0.000143,0.000265,-4.1e-05,0.0,0.0,0.0,0.0,0.0,0.0,0.0,0.0,0.0,0.09,0.118,-9.802,0.0,0.0,0.0,0.0,0.0,0.0,0.0,0.0,0.0
1581180794648049158,42,0,,0.263227224627,-0.201983772909,-0.125884740589,-0.934915512645,0.0,0.0,0.0,0.0,0.0,0.0,0.0,0.0,0.0,-0.000659,0.001593,0.000231,0.0,0.0,0.0,0.0,0.0,0.0,0.0,0.0,0.0,0.079,0.088,-9.791,0.0,0.0,0.0,0.0,0.0,0.0,0.0,0.0,0.0
1581180794714504772,43,0,,0.263333422777,-0.202323755599,-0.126467804196,-0.934733384913,0.0,0.0,0.0,0.0,0.0,0.0,0.0,0.0,0.0,-0.000102,0.000782,0.000557,0.0,0.0,0.0,0.0,0.0,0.0,0.0,0.0,0.0,0.056,0.077,-9.758,0.0,0.0,0.0,0.0,0.0,0.0,0.0,0.0,0.0
1581180794852528288,44,0,,0.265319175283,-0.203701111034,-0.132033097332,-0.933101738183,0.0,0.0,0.0,0.0,0.0,0.0,0.0,0.0,0.0,-8.2e-05,-0.000506,0.000275,0.0,0.0,0.0,0.0,0.0,0.0,0.0,0.0,0.0,0.089,0.102,-9.807,0.0,0.0,0.0,0.0,0.0,0.0,0.0,0.0,0.0
1581180794921902478,45,0,,0.265019631842,-0.204569990665,-0.130748744413,-0.933177624835,0.0,0.0,0.0,0.0,0.0,0.0,0.0,0.0,0.0,0.0002,5.9e-05,-5.8e-05,0.0,0.0,0.0,0.0,0.0,0.0,0.0,0.0,0.0,0.075,0.097,-9.778,0.0,0.0,0.0,0.0,0.0,0.0,0.0,0.0,0.0
1581180794985203316,46,0,,0.265224069289,-0.204304868793,-0.131681856508,-0.933046409523,0.0,0.0,0.0,0.0,0.0,0.0,0.0,0.0,0.0,0.00042,0.000127,0.000581,0.0,0.0,0.0,0.0,0.0,0.0,0.0,0.0,0.0,0.102,0.068,-9.807,0.0,0.0,0.0,0.0,0.0,0.0,0.0,0.0,0.0
1581180795050361615,47,0,,0.265237425815,-0.205246962724,-0.131912410776,-0.932803252633,0.0,0.0,0.0,0.0,0.0,0.0,0.0,0.0,0.0,0.000406,-0.000415,6.4e-05,0.0,0.0,0.0,0.0,0.0,0.0,0.0,0.0,0.0,0.063,0.082,-9.775,0.0,0.0,0.0,0.0,0.0,0.0,0.0,0.0,0.0
1581180795102345239,48,0,,0.264297723298,-0.204907636096,-0.131592308311,-0.933189711968,0.0,0.0,0.0,0.0,0.0,0.0,0.0,0.0,0.0,-0.000768,-0.000399,0.000521,0.0,0.0,0.0,0.0,0.0,0.0,0.0,0.0,0.0,0.094,0.096,-9.794,0.0,0.0,0.0,0.0,0.0,0.0,0.0,0.0,0.0
1581180795166870167,49,0,,0.264283991475,-0.203965209745,-0.131362630484,-0.933432388755,0.0,0.0,0.0,0.0,0.0,0.0,0.0,0.0,0.0,0.000662,-0.002112,-0.000837,0.0,0.0,0.0,0.0,0.0,0.0,0.0,0.0,0.0,0.059,0.097,-9.8,0.0,0.0,0.0,0.0,0.0,0.0,0.0,0.0,0.0
1581180795228902057,50,0,,0.264845451129,-0.20329587341,-0.131816166968,-0.933355330513,0.0,0.0,0.0,0.0,0.0,0.0,0.0,0.0,0.0,-0.000511,-0.001553,-0.000284,0.0,0.0,0.0,0.0,0.0,0.0,0.0,0.0,0.0,0.06,0.1,-9.79,0.0,0.0,0.0,0.0,0.0,0.0,0.0,0.0,0.0
1581180795288768212,51,0,,0.264364140769,-0.202419031316,-0.131484748441,-0.933729028018,0.0,0.0,0.0,0.0,0.0,0.0,0.0,0.0,0.0,0.000997,-0.001281,0.000158,0.0,0.0,0.0,0.0,0.0,0.0,0.0,0.0,0.0,0.068,0.097,-9.816,0.0,0.0,0.0,0.0,0.0,0.0,0.0,0.0,0.0
1581180795350108031,52,0,,0.263958774248,-0.202947354407,-0.129617028661,-0.933990129882,0.0,0.0,0.0,0.0,0.0,0.0,0.0,0.0,0.0,0.000377,-0.000391,0.00057,0.0,0.0,0.0,0.0,0.0,0.0,0.0,0.0,0.0,0.07,0.08,-9.804,0.0,0.0,0.0,0.0,0.0,0.0,0.0,0.0,0.0
1581180795411595578,53,0,,0.263781455196,-0.201673622309,-0.130687041238,-0.93416700392,0.0,0.0,0.0,0.0,0.0,0.0,0.0,0.0,0.0,-0.0004,-6.8e-05,0.000653,0.0,0.0,0.0,0.0,0.0,0.0,0.0,0.0,0.0,0.077,0.104,-9.757,0.0,0.0,0.0,0.0,0.0,0.0,0.0,0.0,0.0
1581180795470904313,54,0,,0.264449981801,-0.201343904316,-0.131721831156,-0.933903741569,0.0,0.0,0.0,0.0,0.0,0.0,0.0,0.0,0.0,-6.8e-05,0.000643,0.001239,0.0,0.0,0.0,0.0,0.0,0.0,0.0,0.0,0.0,0.077,0.074,-9.788,0.0,0.0,0.0,0.0,0.0,0.0,0.0,0.0,0.0
1581180795532298050,55,0,,0.263781455196,-0.201673622309,-0.130687041238,-0.93416700392,0.0,0.0,0.0,0.0,0.0,0.0,0.0,0.0,0.0,3.5e-05,-0.000705,-0.001442,0.0,0.0,0.0,0.0,0.0,0.0,0.0,0.0,0.0,0.071,0.095,-9.762,0.0,0.0,0.0,0.0,0.0,0.0,0.0,0.0,0.0
1581180795593881070,56,0,,0.264140608977,-0.201268806129,-0.130205716024,-0.934220037188,0.0,0.0,0.0,0.0,0.0,0.0,0.0,0.0,0.0,-0.000399,0.000997,-0.001099,0.0,0.0,0.0,0.0,0.0,0.0,0.0,0.0,0.0,0.078,0.069,-9.797,0.0,0.0,0.0,0.0,0.0,0.0,0.0,0.0,0.0
1581180795654523668,57,0,,0.26454261804,-0.200740122726,-0.132073894442,-0.93395775749,0.0,0.0,0.0,0.0,0.0,0.0,0.0,0.0,0.0,-0.000835,-0.000301,-0.000841,0.0,0.0,0.0,0.0,0.0,0.0,0.0,0.0,0.0,0.093,0.09,-9.795,0.0,0.0,0.0,0.0,0.0,0.0,0.0,0.0,0.0
1581180795721200396,58,0,,0.264651193447,-0.201079353707,-0.132655668881,-0.933771552808,0.0,0.0,0.0,0.0,0.0,0.0,0.0,0.0,0.0,-0.000377,-0.001426,-0.000204,0.0,0.0,0.0,0.0,0.0,0.0,0.0,0.0,0.0,0.055,0.098,-9.801,0.0,0.0,0.0,0.0,0.0,0.0,0.0,0.0,0.0
1581180795785206021,59,0,,0.264534549251,-0.200268541104,-0.131958989323,-0.934077517572,0.0,0.0,0.0,0.0,0.0,0.0,0.0,0.0,0.0,0.000229,-0.002792,0.000161,0.0,0.0,0.0,0.0,0.0,0.0,0.0,0.0,0.0,0.078,0.069,-9.766,0.0,0.0,0.0,0.0,0.0,0.0,0.0,0.0,0.0
1581180795852441418,60,0,,0.264326485189,-0.200061335887,-0.130909788405,-0.934328421065,0.0,0.0,0.0,0.0,0.0,0.0,0.0,0.0,0.0,-0.001425,0.000666,0.000626,0.0,0.0,0.0,0.0,0.0,0.0,0.0,0.0,0.0,0.076,0.103,-9.792,0.0,0.0,0.0,0.0,0.0,0.0,0.0,0.0,0.0
1581180795914964548,61,0,,0.263867010948,-0.200598462829,-0.13092456312,-0.934341059793,0.0,0.0,0.0,0.0,0.0,0.0,0.0,0.0,0.0,0.000857,0.000409,-0.000796,0.0,0.0,0.0,0.0,0.0,0.0,0.0,0.0,0.0,0.079,0.076,-9.787,0.0,0.0,0.0,0.0,0.0,0.0,0.0,0.0,0.0
1581180795978639338,62,0,,0.263199011888,-0.200927199465,-0.129889709395,-0.93460323349,0.0,0.0,0.0,0.0,0.0,0.0,0.0,0.0,0.0,6.3e-05,0.002099,-0.000236,0.0,0.0,0.0,0.0,0.0,0.0,0.0,0.0,0.0,0.065,0.108,-9.809,0.0,0.0,0.0,0.0,0.0,0.0,0.0,0.0,0.0
1581180796060572447,63,0,,0.263959318353,-0.199994811117,-0.13127695524,-0.934394945836,0.0,0.0,0.0,0.0,0.0,0.0,0.0,0.0,0.0,-0.000622,-0.000345,-0.000317,0.0,0.0,0.0,0.0,0.0,0.0,0.0,0.0,0.0,0.083,0.096,-9.788,0.0,0.0,0.0,0.0,0.0,0.0,0.0,0.0,0.0
1581180796122489956,64,0,,0.263291895767,-0.200323816606,-0.130242349188,-0.934657518346,0.0,0.0,0.0,0.0,0.0,0.0,0.0,0.0,0.0,0.000805,0.000219,-0.000167,0.0,0.0,0.0,0.0,0.0,0.0,0.0,0.0,0.0,0.086,0.084,-9.781,0.0,0.0,0.0,0.0,0.0,0.0,0.0,0.0,0.0
1581180796194087033,65,0,,0.263191700952,-0.200455437508,-0.129775004168,-0.934722522686,0.0,0.0,0.0,0.0,0.0,0.0,0.0,0.0,0.0,0.000347,-0.000682,0.000657,0.0,0.0,0.0,0.0,0.0,0.0,0.0,0.0,0.0,0.104,0.078,-9.825,0.0,0.0,0.0,0.0,0.0,0.0,0.0,0.0,0.0
1581180796450211412,66,0,,0.263284283128,-0.199852008283,-0.13012767106,-0.934776631216,0.0,0.0,0.0,0.0,0.0,0.0,0.0,0.0,0.0,0.000629,-0.001188,0.000582,0.0,0.0,0.0,0.0,0.0,0.0,0.0,0.0,0.0,0.099,0.093,-9.788,0.0,0.0,0.0,0.0,0.0,0.0,0.0,0.0,0.0
1581180796513891821,67,0,,0.26287731808,-0.199906304095,-0.128142910599,-0.935153666349,0.0,0.0,0.0,0.0,0.0,0.0,0.0,0.0,0.0,0.001191,0.002342,-3e-06,0.0,0.0,0.0,0.0,0.0,0.0,0.0,0.0,0.0,0.078,0.079,-9.785,0.0,0.0,0.0,0.0,0.0,0.0,0.0,0.0,0.0
1581180796580121249,68,0,,0.262783830865,-0.200509593768,-0.127790325267,-0.935099028879,0.0,0.0,0.0,0.0,0.0,0.0,0.0,0.0,0.0,0.000485,-0.001447,0.00031,0.0,0.0,0.0,0.0,0.0,0.0,0.0,0.0,0.0,0.068,0.068,-9.81,0.0,0.0,0.0,0.0,0.0,0.0,0.0,0.0,0.0
1581180796641658198,69,0,,0.263144888187,-0.200105452551,-0.127307761653,-0.935149886116,0.0,0.0,0.0,0.0,0.0,0.0,0.0,0.0,0.0,8.8e-05,-0.001258,0.00038,0.0,0.0,0.0,0.0,0.0,0.0,0.0,0.0,0.0,0.085,0.068,-9.786,0.0,0.0,0.0,0.0,0.0,0.0,0.0,0.0,0.0
1581180796708915805,70,0,,0.262670951848,-0.199697152176,-0.127092594434,-0.93539964235,0.0,0.0,0.0,0.0,0.0,0.0,0.0,0.0,0.0,0.001106,-5.1e-05,0.001372,0.0,0.0,0.0,0.0,0.0,0.0,0.0,0.0,0.0,0.077,0.099,-9.797,0.0,0.0,0.0,0.0,0.0,0.0,0.0,0.0,0.0
1581180796773965756,71,0,,0.262571070442,-0.199828462684,-0.126624878746,-0.935463071719,0.0,0.0,0.0,0.0,0.0,0.0,0.0,0.0,0.0,-0.000451,0.000319,-0.000381,0.0,0.0,0.0,0.0,0.0,0.0,0.0,0.0,0.0,0.095,0.099,-9.779,0.0,0.0,0.0,0.0,0.0,0.0,0.0,0.0,0.0
1581180796831625726,72,0,,0.262838872526,-0.200028064112,-0.125789382269,-0.935457926347,0.0,0.0,0.0,0.0,0.0,0.0,0.0,0.0,0.0,0.000207,-0.001101,-0.001337,0.0,0.0,0.0,0.0,0.0,0.0,0.0,0.0,0.0,0.077,0.091,-9.801,0.0,0.0,0.0,0.0,0.0,0.0,0.0,0.0,0.0
1581180796889667525,73,0,,0.262932990467,-0.199424692038,-0.126141611146,-0.935512869322,0.0,0.0,0.0,0.0,0.0,0.0,0.0,0.0,0.0,0.000895,-0.000593,0.000574,0.0,0.0,0.0,0.0,0.0,0.0,0.0,0.0,0.0,0.103,0.077,-9.808,0.0,0.0,0.0,0.0,0.0,0.0,0.0,0.0,0.0
1581180796945363311,74,0,,0.262744151259,-0.200631341766,-0.125437208512,-0.935402631171,0.0,0.0,0.0,0.0,0.0,0.0,0.0,0.0,0.0,-0.000434,0.001224,-0.001033,0.0,0.0,0.0,0.0,0.0,0.0,0.0,0.0,0.0,0.087,0.084,-9.797,0.0,0.0,0.0,0.0,0.0,0.0,0.0,0.0,0.0
1581180797003306919,75,0,,0.262777332072,-0.20003771776,-0.127675317768,-0.935217620907,0.0,0.0,0.0,0.0,0.0,0.0,0.0,0.0,0.0,0.001079,-0.000517,0.001405,0.0,0.0,0.0,0.0,0.0,0.0,0.0,0.0,0.0,0.124,0.073,-9.775,0.0,0.0,0.0,0.0,0.0,0.0,0.0,0.0,0.0
1581180797057487140,76,0,,0.262476979984,-0.200431658568,-0.126272348228,-0.935408081692,0.0,0.0,0.0,0.0,0.0,0.0,0.0,0.0,0.0,0.000349,-0.001368,-0.000304,0.0,0.0,0.0,0.0,0.0,0.0,0.0,0.0,0.0,0.059,0.085,-9.81,0.0,0.0,0.0,0.0,0.0,0.0,0.0,0.0,0.0
1581180797119274730,77,0,,0.262015093333,-0.200966712444,-0.12628706592,-0.935420786778,0.0,0.0,0.0,0.0,0.0,0.0,0.0,0.0,0.0,0.0012,0.002465,0.000216,0.0,0.0,0.0,0.0,0.0,0.0,0.0,0.0,0.0,0.067,0.085,-9.816,0.0,0.0,0.0,0.0,0.0,0.0,0.0,0.0,0.0
1581180797178503097,78,0,,0.261914577229,-0.201097694865,-0.12581933976,-0.935483813381,0.0,0.0,0.0,0.0,0.0,0.0,0.0,0.0,0.0,0.000679,0.000689,-0.000532,0.0,0.0,0.0,0.0,0.0,0.0,0.0,0.0,0.0,0.082,0.083,-9.812,0.0,0.0,0.0,0.0,0.0,0.0,0.0,0.0,0.0
1581180797238201614,79,0,,0.261547350207,-0.201029830854,-0.126186566782,-0.935551677392,0.0,0.0,0.0,0.0,0.0,0.0,0.0,0.0,0.0,0.000514,0.000687,-0.00015,0.0,0.0,0.0,0.0,0.0,0.0,0.0,0.0,0.0,0.08,0.108,-9.79,0.0,0.0,0.0,0.0,0.0,0.0,0.0,0.0,0.0
1581180797301243938,80,0,,0.262009243153,-0.200494769686,-0.126172116618,-0.935539203251,0.0,0.0,0.0,0.0,0.0,0.0,0.0,0.0,0.0,1.3e-05,0.000531,-0.000595,0.0,0.0,0.0,0.0,0.0,0.0,0.0,0.0,0.0,0.075,0.085,-9.777,0.0,0.0,0.0,0.0,0.0,0.0,0.0,0.0,0.0
1581180797378178350,81,0,,0.262589151179,-0.201244109378,-0.126970256819,-0.935107640867,0.0,0.0,0.0,0.0,0.0,0.0,0.0,0.0,0.0,0.000407,0.000186,-0.001134,0.0,0.0,0.0,0.0,0.0,0.0,0.0,0.0,0.0,0.085,0.087,-9.799,0.0,0.0,0.0,0.0,0.0,0.0,0.0,0.0,0.0
1581180797441085610,82,0,,0.262790263961,-0.200981419648,-0.127905300819,-0.934980203077,0.0,0.0,0.0,0.0,0.0,0.0,0.0,0.0,0.0,-0.000269,0.000503,0.000482,0.0,0.0,0.0,0.0,0.0,0.0,0.0,0.0,0.0,0.068,0.097,-9.781,0.0,0.0,0.0,0.0,0.0,0.0,0.0,0.0,0.0
1581180797503861349,83,0,,0.262215929004,-0.200704596911,-0.127222423407,-0.935294032023,0.0,0.0,0.0,0.0,0.0,0.0,0.0,0.0,0.0,-0.000349,-0.001795,4.3e-05,0.0,0.0,0.0,0.0,0.0,0.0,0.0,0.0,0.0,0.093,0.093,-9.81,0.0,0.0,0.0,0.0,0.0,0.0,0.0,0.0,0.0
1581180797564587840,84,0,,0.263264029062,-0.201389159982,-0.128120954985,-0.934729628362,0.0,0.0,0.0,0.0,0.0,0.0,0.0,0.0,0.0,0.000649,0.002135,-0.00074,0.0,0.0,0.0,0.0,0.0,0.0,0.0,0.0,0.0,0.094,0.105,-9.792,0.0,0.0,0.0,0.0,0.0,0.0,0.0,0.0,0.0
1581180797623130784,85,0,,0.263062508304,-0.201652323273,-0.127186161452,-0.934857281931,0.0,0.0,0.0,0.0,0.0,0.0,0.0,0.0,0.0,-0.000525,0.002309,-0.000177,0.0,0.0,0.0,0.0,0.0,0.0,0.0,0.0,0.0,0.084,0.09,-9.808,0.0,0.0,0.0,0.0,0.0,0.0,0.0,0.0,0.0
1581180797681731359,86,0,,0.262769794024,-0.202990003175,-0.126014592095,-0.93480875934,0.0,0.0,0.0,0.0,0.0,0.0,0.0,0.0,0.0,-0.000306,0.00061,7e-05,0.0,0.0,0.0,0.0,0.0,0.0,0.0,0.0,0.0,0.083,0.085,-9.794,0.0,0.0,0.0,0.0,0.0,0.0,0.0,0.0,0.0
1581180797739560181,87,0,,0.263140305133,-0.203530088857,-0.125764394788,-0.934620778577,0.0,0.0,0.0,0.0,0.0,0.0,0.0,0.0,0.0,8e-06,0.000293,-0.000686,0.0,0.0,0.0,0.0,0.0,0.0,0.0,0.0,0.0,0.082,0.088,-9.794,0.0,0.0,0.0,0.0,0.0,0.0,0.0,0.0,0.0
1581180797800650275,88,0,,0.263042841658,-0.204133110044,-0.125412774891,-0.934563947909,0.0,0.0,0.0,0.0,0.0,0.0,0.0,0.0,0.0,0.00038,-0.001192,0.000364,0.0,0.0,0.0,0.0,0.0,0.0,0.0,0.0,0.0,0.068,0.101,-9.778,0.0,0.0,0.0,0.0,0.0,0.0,0.0,0.0,0.0
1581180797860988280,89,0,,0.263144875328,-0.204001563112,-0.125880041169,-0.934501124703,0.0,0.0,0.0,0.0,0.0,0.0,0.0,0.0,0.0,-0.000477,0.001525,-0.000867,0.0,0.0,0.0,0.0,0.0,0.0,0.0,0.0,0.0,0.068,0.06,-9.809,0.0,0.0,0.0,0.0,0.0,0.0,0.0,0.0,0.0
1581180797920663828,90,0,,0.263616537443,-0.204409962982,-0.126097876819,-0.934249545722,0.0,0.0,0.0,0.0,0.0,0.0,0.0,0.0,0.0,0.000108,0.002466,-5.5e-05,0.0,0.0,0.0,0.0,0.0,0.0,0.0,0.0,0.0,0.075,0.08,-9.814,0.0,0.0,0.0,0.0,0.0,0.0,0.0,0.0,0.0
1581180797982278458,91,0,,0.263055450462,-0.205547232817,-0.125759705235,-0.934203758076,0.0,0.0,0.0,0.0,0.0,0.0,0.0,0.0,0.0,0.000327,0.000984,-0.000147,0.0,0.0,0.0,0.0,0.0,0.0,0.0,0.0,0.0,0.082,0.104,-9.795,0.0,0.0,0.0,0.0,0.0,0.0,0.0,0.0,0.0
1581180798041004734,92,0,,0.26341590295,-0.205144795699,-0.125279503528,-0.934255169034,0.0,0.0,0.0,0.0,0.0,0.0,0.0,0.0,0.0,0.000274,-0.000191,0.000656,0.0,0.0,0.0,0.0,0.0,0.0,0.0,0.0,0.0,0.09,0.099,-9.779,0.0,0.0,0.0,0.0,0.0,0.0,0.0,0.0,0.0
1581180798097778240,93,0,,0.26341974434,-0.205616062842,-0.125395411357,-0.934134928051,0.0,0.0,0.0,0.0,0.0,0.0,0.0,0.0,0.0,0.000827,-0.000405,0.000689,0.0,0.0,0.0,0.0,0.0,0.0,0.0,0.0,0.0,0.085,0.072,-9.787,0.0,0.0,0.0,0.0,0.0,0.0,0.0,0.0,0.0
1581180798158011516,94,0,,0.263732354326,-0.205691911601,-0.126912167791,-0.933825135906,0.0,0.0,0.0,0.0,0.0,0.0,0.0,0.0,0.0,8.4e-05,-0.002047,0.000595,0.0,0.0,0.0,0.0,0.0,0.0,0.0,0.0,0.0,0.073,0.108,-9.803,0.0,0.0,0.0,0.0,0.0,0.0,0.0,0.0,0.0
1581180798310989282,95,0,,0.267952155751,-0.194483445027,-0.128063261996,-0.934867708698,0.0,0.0,0.0,0.0,0.0,0.0,0.0,0.0,0.0,-0.000837,-0.000391,-0.00034,0.0,0.0,0.0,0.0,0.0,0.0,0.0,0.0,0.0,0.072,0.093,-9.762,0.0,0.0,0.0,0.0,0.0,0.0,0.0,0.0,0.0
1581180798370995321,96,0,,0.267470867405,-0.19360373672,-0.127730653051,-0.935233558256,0.0,0.0,0.0,0.0,0.0,0.0,0.0,0.0,0.0,-4.1e-05,0.000857,0.00102,0.0,0.0,0.0,0.0,0.0,0.0,0.0,0.0,0.0,0.098,0.108,-9.8,0.0,0.0,0.0,0.0,0.0,0.0,0.0,0.0,0.0
1581180798430379550,97,0,,0.267671753196,-0.193808043988,-0.128783398241,-0.934989364091,0.0,0.0,0.0,0.0,0.0,0.0,0.0,0.0,0.0,-0.000957,-0.000626,0.000869,0.0,0.0,0.0,0.0,0.0,0.0,0.0,0.0,0.0,0.056,0.097,-9.782,0.0,0.0,0.0,0.0,0.0,0.0,0.0,0.0,0.0
1581180798490531405,98,0,,0.267857539679,-0.193068408135,-0.129600863459,-0.934976226654,0.0,0.0,0.0,0.0,0.0,0.0,0.0,0.0,0.0,0.000631,0.000682,0.000655,0.0,0.0,0.0,0.0,0.0,0.0,0.0,0.0,0.0,0.06,0.084,-9.8,0.0,0.0,0.0,0.0,0.0,0.0,0.0,0.0,0.0
1581180798552776368,99,0,,0.267301127876,-0.193738785117,-0.129154023562,-0.935058622962,0.0,0.0,0.0,0.0,0.0,0.0,0.0,0.0,0.0,0.000749,-0.000234,0.000412,0.0,0.0,0.0,0.0,0.0,0.0,0.0,0.0,0.0,0.091,0.08,-9.772,0.0,0.0,0.0,0.0,0.0,0.0,0.0,0.0,0.0
1581180798610518760,100,0,,0.267017154222,-0.194611411026,-0.127868714552,-0.935135193375,0.0,0.0,0.0,0.0,0.0,0.0,0.0,0.0,0.0,-0.000987,0.002775,0.000191,0.0,0.0,0.0,0.0,0.0,0.0,0.0,0.0,0.0,0.09,0.107,-9.801,0.0,0.0,0.0,0.0,0.0,0.0,0.0,0.0,0.0
1581180798670683444,101,0,,0.267211632092,-0.19434429661,-0.128803785655,-0.935006857114,0.0,0.0,0.0,0.0,0.0,0.0,0.0,0.0,0.0,-0.000169,0.00034,-0.000421,0.0,0.0,0.0,0.0,0.0,0.0,0.0,0.0,0.0,0.078,0.098,-9.777,0.0,0.0,0.0,0.0,0.0,0.0,0.0,0.0,0.0
1581180798732186104,102,0,,0.267308770835,-0.194210666507,-0.129271272964,-0.934942338348,0.0,0.0,0.0,0.0,0.0,0.0,0.0,0.0,0.0,-0.000396,-0.001697,4.8e-05,0.0,0.0,0.0,0.0,0.0,0.0,0.0,0.0,0.0,0.093,0.074,-9.805,0.0,0.0,0.0,0.0,0.0,0.0,0.0,0.0,0.0
1581180798792649418,103,0,,0.266646857605,-0.194542021949,-0.128239011168,-0.935204582452,0.0,0.0,0.0,0.0,0.0,0.0,0.0,0.0,0.0,0.000825,0.000314,-0.001158,0.0,0.0,0.0,0.0,0.0,0.0,0.0,0.0,0.0,0.062,0.08,-9.819,0.0,0.0,0.0,0.0,0.0,0.0,0.0,0.0,0.0
1581180798857218629,104,0,,0.266549553268,-0.194675321054,-0.127771392867,-0.935268585055,0.0,0.0,0.0,0.0,0.0,0.0,0.0,0.0,0.0,0.000131,0.000448,0.000735,0.0,0.0,0.0,0.0,0.0,0.0,0.0,0.0,0.0,0.081,0.083,-9.777,0.0,0.0,0.0,0.0,0.0,0.0,0.0,0.0,0.0
1581180798916703870,105,0,,0.266452182293,-0.194808571491,-0.127303742622,-0.93533235384,0.0,0.0,0.0,0.0,0.0,0.0,0.0,0.0,0.0,-0.0002,0.00077,-0.00053,0.0,0.0,0.0,0.0,0.0,0.0,0.0,0.0,0.0,0.086,0.091,-9.783,0.0,0.0,0.0,0.0,0.0,0.0,0.0,0.0,0.0
1581180798975347108,106,0,,0.266828805862,-0.195350181133,-0.127051023593,-0.935146369558,0.0,0.0,0.0,0.0,0.0,0.0,0.0,0.0,0.0,0.000178,-0.001027,0.00024,0.0,0.0,0.0,0.0,0.0,0.0,0.0,0.0,0.0,0.058,0.069,-9.796,0.0,0.0,0.0,0.0,0.0,0.0,0.0,0.0,0.0
1581180799033144317,107,0,,0.2666333223,-0.195616912219,-0.126115813854,-0.935272952987,0.0,0.0,0.0,0.0,0.0,0.0,0.0,0.0,0.0,-0.001359,0.000518,0.000638,0.0,0.0,0.0,0.0,0.0,0.0,0.0,0.0,0.0,0.102,0.077,-9.794,0.0,0.0,0.0,0.0,0.0,0.0,0.0,0.0,0.0
1581180799088670265,108,0,,0.267003115129,-0.195687355876,-0.125746021025,-0.935202509331,0.0,0.0,0.0,0.0,0.0,0.0,0.0,0.0,0.0,-0.000684,-0.001426,0.00046,0.0,0.0,0.0,0.0,0.0,0.0,0.0,0.0,0.0,0.07,0.069,-9.793,0.0,0.0,0.0,0.0,0.0,0.0,0.0,0.0,0.0
1581180799148820568,109,0,,0.266236574519,-0.195677919905,-0.124127160805,-0.935639185798,0.0,0.0,0.0,0.0,0.0,0.0,0.0,0.0,0.0,0.00083,0.001086,-0.000862,0.0,0.0,0.0,0.0,0.0,0.0,0.0,0.0,0.0,0.08,0.096,-9.815,0.0,0.0,0.0,0.0,0.0,0.0,0.0,0.0,0.0
1581180799211916010,110,0,,0.266246469859,-0.196621605607,-0.124362842061,-0.935407208124,0.0,0.0,0.0,0.0,0.0,0.0,0.0,0.0,0.0,-0.000216,-0.000385,-0.000415,0.0,0.0,0.0,0.0,0.0,0.0,0.0,0.0,0.0,0.072,0.095,-9.778,0.0,0.0,0.0,0.0,0.0,0.0,0.0,0.0,0.0
1581180799278086016,111,0,,0.266349831089,-0.196960224493,-0.124948265923,-0.935228511268,0.0,0.0,0.0,0.0,0.0,0.0,0.0,0.0,0.0,-0.0,0.001112,-8.1e-05,0.0,0.0,0.0,0.0,0.0,0.0,0.0,0.0,0.0,0.091,0.078,-9.794,0.0,0.0,0.0,0.0,0.0,0.0,0.0,0.0,0.0
1581180799352218728,112,0,,0.266067779274,-0.195813004032,-0.125550270829,-0.9354690448,0.0,0.0,0.0,0.0,0.0,0.0,0.0,0.0,0.0,-0.000181,0.000769,0.000716,0.0,0.0,0.0,0.0,0.0,0.0,0.0,0.0,0.0,0.1,0.089,-9.784,0.0,0.0,0.0,0.0,0.0,0.0,0.0,0.0,0.0
1581180799418331814,113,0,,0.266535480518,-0.195750204423,-0.125648161633,-0.935335893982,0.0,0.0,0.0,0.0,0.0,0.0,0.0,0.0,0.0,0.000782,-0.000297,-0.000117,0.0,0.0,0.0,0.0,0.0,0.0,0.0,0.0,0.0,0.068,0.088,-9.78,0.0,0.0,0.0,0.0,0.0,0.0,0.0,0.0,0.0
1581180799477668502,114,0,,0.267106725272,-0.196025578567,-0.126331435082,-0.935023175313,0.0,0.0,0.0,0.0,0.0,0.0,0.0,0.0,0.0,-0.000703,-3.8e-05,3.5e-05,0.0,0.0,0.0,0.0,0.0,0.0,0.0,0.0,0.0,0.069,0.11,-9.768,0.0,0.0,0.0,0.0,0.0,0.0,0.0,0.0,0.0
1581180799538144129,115,0,,0.267181743788,-0.196497144475,-0.124559401453,-0.935140493995,0.0,0.0,0.0,0.0,0.0,0.0,0.0,0.0,0.0,-7.8e-05,3e-05,-0.000587,0.0,0.0,0.0,0.0,0.0,0.0,0.0,0.0,0.0,0.087,0.07,-9.785,0.0,0.0,0.0,0.0,0.0,0.0,0.0,0.0,0.0
1581180799595546159,116,0,,0.266985113086,-0.196764227925,-0.123624198835,-0.935264585806,0.0,0.0,0.0,0.0,0.0,0.0,0.0,0.0,0.0,0.000605,0.00038,0.001552,0.0,0.0,0.0,0.0,0.0,0.0,0.0,0.0,0.0,0.077,0.107,-9.792,0.0,0.0,0.0,0.0,0.0,0.0,0.0,0.0,0.0
1581180799655447385,117,0,,0.266784360526,-0.196559405688,-0.122570343751,-0.935503616159,0.0,0.0,0.0,0.0,0.0,0.0,0.0,0.0,0.0,0.000207,-0.000188,-0.000187,0.0,0.0,0.0,0.0,0.0,0.0,0.0,0.0,0.0,0.085,0.104,-9.807,0.0,0.0,0.0,0.0,0.0,0.0,0.0,0.0,0.0
1581180799714604266,118,0,,0.267252078966,-0.196498095948,-0.122668608129,-0.935370107047,0.0,0.0,0.0,0.0,0.0,0.0,0.0,0.0,0.0,-0.000653,-0.000657,0.001614,0.0,0.0,0.0,0.0,0.0,0.0,0.0,0.0,0.0,0.086,0.086,-9.772,0.0,0.0,0.0,0.0,0.0,0.0,0.0,0.0,0.0
1581180799773305952,119,0,,0.267252078966,-0.196498095948,-0.122668608129,-0.935370107047,0.0,0.0,0.0,0.0,0.0,0.0,0.0,0.0,0.0,-2.8e-05,0.000901,-0.000228,0.0,0.0,0.0,0.0,0.0,0.0,0.0,0.0,0.0,0.074,0.093,-9.804,0.0,0.0,0.0,0.0,0.0,0.0,0.0,0.0,0.0
1581180799831961241,120,0,,0.267153796516,-0.19663169742,-0.122200907761,-0.935431324427,0.0,0.0,0.0,0.0,0.0,0.0,0.0,0.0,0.0,0.000828,0.000253,0.00187,0.0,0.0,0.0,0.0,0.0,0.0,0.0,0.0,0.0,0.049,0.112,-9.785,0.0,0.0,0.0,0.0,0.0,0.0,0.0,0.0,0.0
1581180799888885002,121,0,,0.267817915493,-0.19630285267,-0.123234444656,-0.935174863769,0.0,0.0,0.0,0.0,0.0,0.0,0.0,0.0,0.0,-0.000409,0.001195,0.00069,0.0,0.0,0.0,0.0,0.0,0.0,0.0,0.0,0.0,0.089,0.095,-9.791,0.0,0.0,0.0,0.0,0.0,0.0,0.0,0.0,0.0
1581180799947681411,122,0,,0.267719730594,-0.196436737085,-0.122766841839,-0.935236364091,0.0,0.0,0.0,0.0,0.0,0.0,0.0,0.0,0.0,0.000183,0.001384,-0.001244,0.0,0.0,0.0,0.0,0.0,0.0,0.0,0.0,0.0,0.081,0.076,-9.779,0.0,0.0,0.0,0.0,0.0,0.0,0.0,0.0,0.0
1581180800007058965,123,0,,0.268187315292,-0.196375329112,-0.122865044858,-0.935102387327,0.0,0.0,0.0,0.0,0.0,0.0,0.0,0.0,0.0,0.000289,0.001081,-0.000374,0.0,0.0,0.0,0.0,0.0,0.0,0.0,0.0,0.0,0.09,0.112,-9.805,0.0,0.0,0.0,0.0,0.0,0.0,0.0,0.0,0.0
1581180800065550437,124,0,,0.268383556494,-0.196107043654,-0.123800085657,-0.934979054752,0.0,0.0,0.0,0.0,0.0,0.0,0.0,0.0,0.0,0.000575,-0.000551,0.00026,0.0,0.0,0.0,0.0,0.0,0.0,0.0,0.0,0.0,0.061,0.082,-9.787,0.0,0.0,0.0,0.0,0.0,0.0,0.0,0.0,0.0
1581180800122923814,125,0,,0.268107319171,-0.195429274394,-0.124518268129,-0.935104841726,0.0,0.0,0.0,0.0,0.0,0.0,0.0,0.0,0.0,0.001581,0.000152,-0.000178,0.0,0.0,0.0,0.0,0.0,0.0,0.0,0.0,0.0,0.096,0.083,-9.796,0.0,0.0,0.0,0.0,0.0,0.0,0.0,0.0,0.0
1581180800181801887,126,0,,0.267367500507,-0.195286425114,-0.125258086793,-0.935247691006,0.0,0.0,0.0,0.0,0.0,0.0,0.0,0.0,0.0,0.000994,0.000162,-0.000178,0.0,0.0,0.0,0.0,0.0,0.0,0.0,0.0,0.0,0.07,0.089,-9.808,0.0,0.0,0.0,0.0,0.0,0.0,0.0,0.0,0.0
1581180800242129738,127,0,,0.267824332389,-0.194280255339,-0.125118724579,-0.935345184478,0.0,0.0,0.0,0.0,0.0,0.0,0.0,0.0,0.0,0.000309,-0.002315,0.000467,0.0,0.0,0.0,0.0,0.0,0.0,0.0,0.0,0.0,0.086,0.086,-9.823,0.0,0.0,0.0,0.0,0.0,0.0,0.0,0.0,0.0
1581180800301072684,128,0,,0.267824332389,-0.194280255339,-0.125118724579,-0.935345184478,0.0,0.0,0.0,0.0,0.0,0.0,0.0,0.0,0.0,-0.000554,-0.000333,0.000644,0.0,0.0,0.0,0.0,0.0,0.0,0.0,0.0,0.0,0.087,0.071,-9.8,0.0,0.0,0.0,0.0,0.0,0.0,0.0,0.0,0.0
1581180800358546378,129,0,,0.267727158787,-0.194414143215,-0.124651036367,-0.935407626919,0.0,0.0,0.0,0.0,0.0,0.0,0.0,0.0,0.0,-0.000648,0.000252,1.6e-05,0.0,0.0,0.0,0.0,0.0,0.0,0.0,0.0,0.0,0.086,0.096,-9.805,0.0,0.0,0.0,0.0,0.0,0.0,0.0,0.0,0.0
1581180800415752263,130,0,,0.267629918254,-0.194547982487,-0.124183316992,-0.935469835509,0.0,0.0,0.0,0.0,0.0,0.0,0.0,0.0,0.0,-2.6e-05,0.001005,0.00036,0.0,0.0,0.0,0.0,0.0,0.0,0.0,0.0,0.0,0.101,0.086,-9.817,0.0,0.0,0.0,0.0,0.0,0.0,0.0,0.0,0.0
1581180800476676529,131,0,,0.267902999815,-0.194753866845,-0.123345177568,-0.935459716508,0.0,0.0,0.0,0.0,0.0,0.0,0.0,0.0,0.0,-0.000254,-0.001017,-8.7e-05,0.0,0.0,0.0,0.0,0.0,0.0,0.0,0.0,0.0,0.056,0.097,-9.792,0.0,0.0,0.0,0.0,0.0,0.0,0.0,0.0,0.0
1581180800535052749,132,0,,0.267809765049,-0.195359529099,-0.122996467185,-0.935406036539,0.0,0.0,0.0,0.0,0.0,0.0,0.0,0.0,0.0,-0.000575,0.00111,0.000893,0.0,0.0,0.0,0.0,0.0,0.0,0.0,0.0,0.0,0.082,0.089,-9.812,0.0,0.0,0.0,0.0,0.0,0.0,0.0,0.0,0.0
1581180800593427062,133,0,,0.267907411334,-0.195225599802,-0.123464154809,-0.935344421383,0.0,0.0,0.0,0.0,0.0,0.0,0.0,0.0,0.0,0.000669,-0.00051,-6e-05,0.0,0.0,0.0,0.0,0.0,0.0,0.0,0.0,0.0,0.092,0.07,-9.79,0.0,0.0,0.0,0.0,0.0,0.0,0.0,0.0,0.0
1581180800651987667,134,0,,0.268107319171,-0.195429274394,-0.124518268129,-0.935104841726,0.0,0.0,0.0,0.0,0.0,0.0,0.0,0.0,0.0,-0.00082,0.000624,0.000357,0.0,0.0,0.0,0.0,0.0,0.0,0.0,0.0,0.0,0.08,0.11,-9.815,0.0,0.0,0.0,0.0,0.0,0.0,0.0,0.0,0.0
1581180800710509688,135,0,,0.268281485535,-0.195769633152,-0.123213371524,-0.935156543223,0.0,0.0,0.0,0.0,0.0,0.0,0.0,0.0,0.0,0.000175,-0.001263,0.00022,0.0,0.0,0.0,0.0,0.0,0.0,0.0,0.0,0.0,0.087,0.088,-9.827,0.0,0.0,0.0,0.0,0.0,0.0,0.0,0.0,0.0
1581180800769077011,136,0,,0.268183567188,-0.195903749418,-0.12274577787,-0.935218033011,0.0,0.0,0.0,0.0,0.0,0.0,0.0,0.0,0.0,-0.00023,-0.001381,-0.000633,0.0,0.0,0.0,0.0,0.0,0.0,0.0,0.0,0.0,0.056,0.091,-9.767,0.0,0.0,0.0,0.0,0.0,0.0,0.0,0.0,0.0
1581180800827572780,137,0,,0.268179752038,-0.195432120748,-0.122626480196,-0.935333444891,0.0,0.0,0.0,0.0,0.0,0.0,0.0,0.0,0.0,-0.000241,-0.000319,-0.000323,0.0,0.0,0.0,0.0,0.0,0.0,0.0,0.0,0.0,0.083,0.093,-9.811,0.0,0.0,0.0,0.0,0.0,0.0,0.0,0.0,0.0
1581180800886583890,138,0,,0.267519825745,-0.196232715714,-0.12171239748,-0.935474188001,0.0,0.0,0.0,0.0,0.0,0.0,0.0,0.0,0.0,-3e-06,0.000334,-0.001332,0.0,0.0,0.0,0.0,0.0,0.0,0.0,0.0,0.0,0.069,0.09,-9.793,0.0,0.0,0.0,0.0,0.0,0.0,0.0,0.0,0.0
1581180800945409266,139,0,,0.267424774414,-0.196838095539,-0.121363849707,-0.935419462144,0.0,0.0,0.0,0.0,0.0,0.0,0.0,0.0,0.0,-0.000856,0.00055,0.000637,0.0,0.0,0.0,0.0,0.0,0.0,0.0,0.0,0.0,0.066,0.089,-9.79,0.0,0.0,0.0,0.0,0.0,0.0,0.0,0.0,0.0
1581180801004430091,140,0,,0.26752316003,-0.196704358552,-0.121831544248,-0.935358663295,0.0,0.0,0.0,0.0,0.0,0.0,0.0,0.0,0.0,0.000459,0.002769,0.000302,0.0,0.0,0.0,0.0,0.0,0.0,0.0,0.0,0.0,0.091,0.06,-9.832,0.0,0.0,0.0,0.0,0.0,0.0,0.0,0.0,0.0
1581180801061208175,141,0,,0.266661382929,-0.197298966742,-0.119861950009,-0.935733903157,0.0,0.0,0.0,0.0,0.0,0.0,0.0,0.0,0.0,-7.2e-05,-0.002114,-0.000137,0.0,0.0,0.0,0.0,0.0,0.0,0.0,0.0,0.0,0.092,0.099,-9.807,0.0,0.0,0.0,0.0,0.0,0.0,0.0,0.0,0.0
1581180801119025012,142,0,,0.265995990728,-0.197624967811,-0.118827358704,-0.935986412208,0.0,0.0,0.0,0.0,0.0,0.0,0.0,0.0,0.0,-0.000173,-0.001587,-0.000606,0.0,0.0,0.0,0.0,0.0,0.0,0.0,0.0,0.0,0.056,0.065,-9.782,0.0,0.0,0.0,0.0,0.0,0.0,0.0,0.0,0.0
1581180801177258010,143,0,,0.265725515852,-0.197418730023,-0.119664591144,-0.936000096628,0.0,0.0,0.0,0.0,0.0,0.0,0.0,0.0,0.0,-0.000173,0.000652,-0.000843,0.0,0.0,0.0,0.0,0.0,0.0,0.0,0.0,0.0,0.08,0.101,-9.802,0.0,0.0,0.0,0.0,0.0,0.0,0.0,0.0,0.0
1581180801234634258,144,0,,0.26572801334,-0.197890507768,-0.119783231199,-0.935884580162,0.0,0.0,0.0,0.0,0.0,0.0,0.0,0.0,0.0,-0.001188,0.00117,6.5e-05,0.0,0.0,0.0,0.0,0.0,0.0,0.0,0.0,0.0,0.084,0.081,-9.792,0.0,0.0,0.0,0.0,0.0,0.0,0.0,0.0,0.0
1581180801293828524,145,0,,0.265725515852,-0.197418730023,-0.119664591144,-0.936000096628,0.0,0.0,0.0,0.0,0.0,0.0,0.0,0.0,0.0,-0.000356,-0.000792,-0.001753,0.0,0.0,0.0,0.0,0.0,0.0,0.0,0.0,0.0,0.09,0.109,-9.814,0.0,0.0,0.0,0.0,0.0,0.0,0.0,0.0,0.0
1581180801397023063,146,0,,0.262327890951,-0.20117515944,-0.11023667532,-0.937315586272,0.0,0.0,0.0,0.0,0.0,0.0,0.0,0.0,0.0,0.001178,0.002383,0.000261,0.0,0.0,0.0,0.0,0.0,0.0,0.0,0.0,0.0,0.066,0.085,-9.796,0.0,0.0,0.0,0.0,0.0,0.0,0.0,0.0,0.0
1581180801455950643,147,0,,0.262028655495,-0.201096520401,-0.108711352807,-0.937594269902,0.0,0.0,0.0,0.0,0.0,0.0,0.0,0.0,0.0,0.000139,-0.002082,-0.000526,0.0,0.0,0.0,0.0,0.0,0.0,0.0,0.0,0.0,0.077,0.104,-9.808,0.0,0.0,0.0,0.0,0.0,0.0,0.0,0.0,0.0
1581180801513793774,148,0,,0.262025833207,-0.201568424807,-0.108830578451,-0.937479886743,0.0,0.0,0.0,0.0,0.0,0.0,0.0,0.0,0.0,-0.000521,-0.000114,-0.000407,0.0,0.0,0.0,0.0,0.0,0.0,0.0,0.0,0.0,0.068,0.057,-9.76,0.0,0.0,0.0,0.0,0.0,0.0,0.0,0.0,0.0
1581180801571066300,149,0,,0.260781931989,-0.202540528168,-0.107341120119,-0.937788890065,0.0,0.0,0.0,0.0,0.0,0.0,0.0,0.0,0.0,-0.000159,0.000403,-0.001372,0.0,0.0,0.0,0.0,0.0,0.0,0.0,0.0,0.0,0.084,0.095,-9.792,0.0,0.0,0.0,0.0,0.0,0.0,0.0,0.0,0.0
1581180801632738548,150,0,,0.261088222463,-0.201677154583,-0.108628955645,-0.937741443792,0.0,0.0,0.0,0.0,0.0,0.0,0.0,0.0,0.0,0.000804,0.00013,1.5e-05,0.0,0.0,0.0,0.0,0.0,0.0,0.0,0.0,0.0,0.1,0.092,-9.787,0.0,0.0,0.0,0.0,0.0,0.0,0.0,0.0,0.0
1581180801690789255,151,0,,0.260987351254,-0.201807673479,-0.108160071364,-0.93779564105,0.0,0.0,0.0,0.0,0.0,0.0,0.0,0.0,0.0,-0.000166,-0.001082,-0.000514,0.0,0.0,0.0,0.0,0.0,0.0,0.0,0.0,0.0,0.058,0.087,-9.763,0.0,0.0,0.0,0.0,0.0,0.0,0.0,0.0,0.0
1581180801748734806,152,0,,0.260486140971,-0.201987497381,-0.1056961504,-0.938177139486,0.0,0.0,0.0,0.0,0.0,0.0,0.0,0.0,0.0,0.000398,-0.000668,-0.000481,0.0,0.0,0.0,0.0,0.0,0.0,0.0,0.0,0.0,0.077,0.064,-9.822,0.0,0.0,0.0,0.0,0.0,0.0,0.0,0.0,0.0
1581180801806873776,153,0,,0.260121773392,-0.201438161358,-0.105945454089,-0.93836820647,0.0,0.0,0.0,0.0,0.0,0.0,0.0,0.0,0.0,0.000346,0.000196,0.000572,0.0,0.0,0.0,0.0,0.0,0.0,0.0,0.0,0.0,0.088,0.071,-9.789,0.0,0.0,0.0,0.0,0.0,0.0,0.0,0.0,0.0
1581180801867471451,154,0,,0.259652556793,-0.201491108903,-0.105844721769,-0.938498150056,0.0,0.0,0.0,0.0,0.0,0.0,0.0,0.0,0.0,9.3e-05,0.000665,0.000201,0.0,0.0,0.0,0.0,0.0,0.0,0.0,0.0,0.0,0.076,0.077,-9.797,0.0,0.0,0.0,0.0,0.0,0.0,0.0,0.0,0.0
1581180801928306491,155,0,,0.259350028134,-0.201880360914,-0.104436855997,-0.938655861268,0.0,0.0,0.0,0.0,0.0,0.0,0.0,0.0,0.0,-0.000486,0.000379,-0.000469,0.0,0.0,0.0,0.0,0.0,0.0,0.0,0.0,0.0,0.101,0.094,-9.792,0.0,0.0,0.0,0.0,0.0,0.0,0.0,0.0,0.0
1581180801986825024,156,0,,0.258673773226,-0.20266356684,-0.103515707198,-0.938775721929,0.0,0.0,0.0,0.0,0.0,0.0,0.0,0.0,0.0,-0.000132,5.6e-05,-0.000557,0.0,0.0,0.0,0.0,0.0,0.0,0.0,0.0,0.0,0.077,0.102,-9.776,0.0,0.0,0.0,0.0,0.0,0.0,0.0,0.0,0.0
1581180802048837508,157,0,,0.259302568409,-0.203421195932,-0.102429686613,-0.938557485912,0.0,0.0,0.0,0.0,0.0,0.0,0.0,0.0,0.0,0.000658,-5e-05,-0.001672,0.0,0.0,0.0,0.0,0.0,0.0,0.0,0.0,0.0,0.069,0.092,-9.762,0.0,0.0,0.0,0.0,0.0,0.0,0.0,0.0,0.0
1581180802104427709,158,0,,0.259511107032,-0.202689730703,-0.103249047739,-0.938568320654,0.0,0.0,0.0,0.0,0.0,0.0,0.0,0.0,0.0,-0.000225,0.000652,-9.8e-05,0.0,0.0,0.0,0.0,0.0,0.0,0.0,0.0,0.0,0.065,0.102,-9.787,0.0,0.0,0.0,0.0,0.0,0.0,0.0,0.0,0.0
1581180802164478474,159,0,,0.259884482209,-0.202295996345,-0.102761683996,-0.938603442393,0.0,0.0,0.0,0.0,0.0,0.0,0.0,0.0,0.0,2.7e-05,0.000626,-0.000923,0.0,0.0,0.0,0.0,0.0,0.0,0.0,0.0,0.0,0.07,0.094,-9.785,0.0,0.0,0.0,0.0,0.0,0.0,0.0,0.0,0.0
1581180802222522167,160,0,,0.259682056304,-0.202555779636,-0.101823029329,-0.938705734758,0.0,0.0,0.0,0.0,0.0,0.0,0.0,0.0,0.0,2.6e-05,0.000953,0.001277,0.0,0.0,0.0,0.0,0.0,0.0,0.0,0.0,0.0,0.036,0.095,-9.767,0.0,0.0,0.0,0.0,0.0,0.0,0.0,0.0,0.0
1581180802281369025,161,0,,0.259319531438,-0.202004877306,-0.102071833922,-0.938897625345,0.0,0.0,0.0,0.0,0.0,0.0,0.0,0.0,0.0,0.002034,-0.002122,0.000792,0.0,0.0,0.0,0.0,0.0,0.0,0.0,0.0,0.0,0.064,0.084,-9.752,0.0,0.0,0.0,0.0,0.0,0.0,0.0,0.0,0.0
1581180802343694991,162,0,,0.259016232502,-0.202393629202,-0.100663373181,-0.939049676779,0.0,0.0,0.0,0.0,0.0,0.0,0.0,0.0,0.0,-0.000336,-0.000222,-0.000394,0.0,0.0,0.0,0.0,0.0,0.0,0.0,0.0,0.0,0.066,0.111,-9.779,0.0,0.0,0.0,0.0,0.0,0.0,0.0,0.0,0.0
1581180802402335516,163,0,,0.258350751009,-0.202230129166,-0.0995035534983,-0.939391775114,0.0,0.0,0.0,0.0,0.0,0.0,0.0,0.0,0.0,-0.000278,0.000266,0.000424,0.0,0.0,0.0,0.0,0.0,0.0,0.0,0.0,0.0,0.067,0.099,-9.801,0.0,0.0,0.0,0.0,0.0,0.0,0.0,0.0,0.0
1581180802461057136,164,0,,0.2594039026,-0.201056431793,-0.0999356187938,-0.939307616623,0.0,0.0,0.0,0.0,0.0,0.0,0.0,0.0,0.0,0.000875,-0.003364,0.000608,0.0,0.0,0.0,0.0,0.0,0.0,0.0,0.0,0.0,0.083,0.101,-9.777,0.0,0.0,0.0,0.0,0.0,0.0,0.0,0.0,0.0
1581180802521040707,165,0,,0.259391046299,-0.202000854247,-0.100175287837,-0.939082984454,0.0,0.0,0.0,0.0,0.0,0.0,0.0,0.0,0.0,0.001174,0.000655,0.001127,0.0,0.0,0.0,0.0,0.0,0.0,0.0,0.0,0.0,0.093,0.073,-9.778,0.0,0.0,0.0,0.0,0.0,0.0,0.0,0.0,0.0
1581180802584491537,166,0,,0.259391046299,-0.202000854247,-0.100175287837,-0.939082984454,0.0,0.0,0.0,0.0,0.0,0.0,0.0,0.0,0.0,-8.1e-05,-0.000142,-0.00168,0.0,0.0,0.0,0.0,0.0,0.0,0.0,0.0,0.0,0.056,0.068,-9.81,0.0,0.0,0.0,0.0,0.0,0.0,0.0,0.0,0.0
1581180802643885635,167,0,,0.259016232502,-0.202393629202,-0.100663373181,-0.939049676779,0.0,0.0,0.0,0.0,0.0,0.0,0.0,0.0,0.0,0.000989,0.000663,-0.001319,0.0,0.0,0.0,0.0,0.0,0.0,0.0,0.0,0.0,0.08,0.091,-9.789,0.0,0.0,0.0,0.0,0.0,0.0,0.0,0.0,0.0
1581180802700594961,168,0,,0.25958686414,-0.202213504068,-0.101234004819,-0.938869551645,0.0,0.0,0.0,0.0,0.0,0.0,0.0,0.0,0.0,0.000134,0.001321,0.001071,0.0,0.0,0.0,0.0,0.0,0.0,0.0,0.0,0.0,0.098,0.071,-9.804,0.0,0.0,0.0,0.0,0.0,0.0,0.0,0.0,0.0
1581180802759001354,169,0,,0.260056266448,-0.202162861791,-0.101335098913,-0.93873964086,0.0,0.0,0.0,0.0,0.0,0.0,0.0,0.0,0.0,0.000937,0.00057,-0.000876,0.0,0.0,0.0,0.0,0.0,0.0,0.0,0.0,0.0,0.088,0.09,-9.792,0.0,0.0,0.0,0.0,0.0,0.0,0.0,0.0,0.0
1581180802817822827,170,0,,0.260323361343,-0.202372593478,-0.100497507616,-0.938710462236,0.0,0.0,0.0,0.0,0.0,0.0,0.0,0.0,0.0,-5.8e-05,0.00017,-0.001074,0.0,0.0,0.0,0.0,0.0,0.0,0.0,0.0,0.0,0.071,0.097,-9.762,0.0,0.0,0.0,0.0,0.0,0.0,0.0,0.0,0.0
1581180802878705595,171,0,,0.259347105033,-0.203071818619,-0.0980488962011,-0.939088563208,0.0,0.0,0.0,0.0,0.0,0.0,0.0,0.0,0.0,0.000188,-0.001503,-0.000674,0.0,0.0,0.0,0.0,0.0,0.0,0.0,0.0,0.0,0.081,0.08,-9.807,0.0,0.0,0.0,0.0,0.0,0.0,0.0,0.0,0.0
1581180802938697415,172,0,,0.259253534661,-0.202729413074,-0.0974589692053,-0.93924977464,0.0,0.0,0.0,0.0,0.0,0.0,0.0,0.0,0.0,0.000389,-0.000181,0.000392,0.0,0.0,0.0,0.0,0.0,0.0,0.0,0.0,0.0,0.091,0.095,-9.813,0.0,0.0,0.0,0.0,0.0,0.0,0.0,0.0,0.0
1581180802999066018,173,0,,0.259520316636,-0.202940279994,-0.0966211530711,-0.939217121218,0.0,0.0,0.0,0.0,0.0,0.0,0.0,0.0,0.0,-0.000859,0.000627,-0.000267,0.0,0.0,0.0,0.0,0.0,0.0,0.0,0.0,0.0,0.062,0.086,-9.819,0.0,0.0,0.0,0.0,0.0,0.0,0.0,0.0,0.0
1581180803057343556,174,0,,0.259621754332,-0.202810494473,-0.0970907495345,-0.939168693241,0.0,0.0,0.0,0.0,0.0,0.0,0.0,0.0,0.0,0.001138,-0.000293,0.000612,0.0,0.0,0.0,0.0,0.0,0.0,0.0,0.0,0.0,0.073,0.093,-9.802,0.0,0.0,0.0,0.0,0.0,0.0,0.0,0.0,0.0
1581180803112778585,175,0,,0.259537174177,-0.201996157558,-0.0963796431764,-0.939440776171,0.0,0.0,0.0,0.0,0.0,0.0,0.0,0.0,0.0,0.001386,-0.001791,0.000772,0.0,0.0,0.0,0.0,0.0,0.0,0.0,0.0,0.0,0.085,0.073,-9.804,0.0,0.0,0.0,0.0,0.0,0.0,0.0,0.0,0.0
1581180803172541472,176,0,,0.25963813981,-0.201866363727,-0.0968493514975,-0.939392468921,0.0,0.0,0.0,0.0,0.0,0.0,0.0,0.0,0.0,-0.001004,0.000322,9.5e-05,0.0,0.0,0.0,0.0,0.0,0.0,0.0,0.0,0.0,0.075,0.093,-9.777,0.0,0.0,0.0,0.0,0.0,0.0,0.0,0.0,0.0
1581180803233161135,177,0,,0.259277139627,-0.201312948327,-0.0970977117042,-0.939585278772,0.0,0.0,0.0,0.0,0.0,0.0,0.0,0.0,0.0,0.00031,-0.001715,0.000129,0.0,0.0,0.0,0.0,0.0,0.0,0.0,0.0,0.0,0.085,0.088,-9.798,0.0,0.0,0.0,0.0,0.0,0.0,0.0,0.0,0.0
1581180803291744643,178,0,,0.258993931012,-0.202047059822,-0.0981768761276,-0.939393650346,0.0,0.0,0.0,0.0,0.0,0.0,0.0,0.0,0.0,0.000133,0.001211,-0.001053,0.0,0.0,0.0,0.0,0.0,0.0,0.0,0.0,0.0,0.071,0.075,-9.803,0.0,0.0,0.0,0.0,0.0,0.0,0.0,0.0,0.0
1581180803351196796,179,0,,0.259195848541,-0.20178796491,-0.099116220533,-0.939295003789,0.0,0.0,0.0,0.0,0.0,0.0,0.0,0.0,0.0,0.000417,-0.000492,0.000118,0.0,0.0,0.0,0.0,0.0,0.0,0.0,0.0,0.0,0.055,0.114,-9.794,0.0,0.0,0.0,0.0,0.0,0.0,0.0,0.0,0.0
1581180803410818206,180,0,,0.259779611233,-0.20066412705,-0.0994463690241,-0.939339598543,0.0,0.0,0.0,0.0,0.0,0.0,0.0,0.0,0.0,-0.000176,-0.000574,-0.00105,0.0,0.0,0.0,0.0,0.0,0.0,0.0,0.0,0.0,0.066,0.102,-9.798,0.0,0.0,0.0,0.0,0.0,0.0,0.0,0.0,0.0
1581180803466755693,181,0,,0.26018041966,-0.200144166846,-0.101324848076,-0.939138827259,0.0,0.0,0.0,0.0,0.0,0.0,0.0,0.0,0.0,0.001072,-0.000183,0.000301,0.0,0.0,0.0,0.0,0.0,0.0,0.0,0.0,0.0,0.074,0.093,-9.808,0.0,0.0,0.0,0.0,0.0,0.0,0.0,0.0,0.0
1581180803529316733,182,0,,0.260849919653,-0.199832729446,-0.10236386524,-0.938906725267,0.0,0.0,0.0,0.0,0.0,0.0,0.0,0.0,0.0,5e-05,-0.001124,-0.001076,0.0,0.0,0.0,0.0,0.0,0.0,0.0,0.0,0.0,0.092,0.091,-9.803,0.0,0.0,0.0,0.0,0.0,0.0,0.0,0.0,0.0
1581180803586848565,183,0,,0.260005903674,-0.2002773165,-0.102753087707,-0.939003583336,0.0,0.0,0.0,0.0,0.0,0.0,0.0,0.0,0.0,0.000341,-0.000307,-0.000107,0.0,0.0,0.0,0.0,0.0,0.0,0.0,0.0,0.0,0.089,0.082,-9.796,0.0,0.0,0.0,0.0,0.0,0.0,0.0,0.0,0.0
1581180803649508620,184,0,,0.259905732519,-0.200407294411,-0.102283573091,-0.939054842502,0.0,0.0,0.0,0.0,0.0,0.0,0.0,0.0,0.0,0.000213,-0.000495,-0.000463,0.0,0.0,0.0,0.0,0.0,0.0,0.0,0.0,0.0,0.077,0.087,-9.775,0.0,0.0,0.0,0.0,0.0,0.0,0.0,0.0,0.0
1581180803710321671,185,0,,0.260849919653,-0.199832729446,-0.10236386524,-0.938906725267,0.0,0.0,0.0,0.0,0.0,0.0,0.0,0.0,0.0,-0.001729,0.001609,0.00139,0.0,0.0,0.0,0.0,0.0,0.0,0.0,0.0,0.0,0.067,0.107,-9.794,0.0,0.0,0.0,0.0,0.0,0.0,0.0,0.0,0.0
1581180803769149935,186,0,,0.260844657252,-0.200304910652,-0.10248392921,-0.938794467285,0.0,0.0,0.0,0.0,0.0,0.0,0.0,0.0,0.0,0.001144,-0.000764,0.000597,0.0,0.0,0.0,0.0,0.0,0.0,0.0,0.0,0.0,0.07,0.076,-9.795,0.0,0.0,0.0,0.0,0.0,0.0,0.0,0.0,0.0
1581180803827734747,187,0,,0.260638422213,-0.201037780678,-0.101665234438,-0.938784109214,0.0,0.0,0.0,0.0,0.0,0.0,0.0,0.0,0.0,0.00031,0.003142,0.000588,0.0,0.0,0.0,0.0,0.0,0.0,0.0,0.0,0.0,0.093,0.089,-9.791,0.0,0.0,0.0,0.0,0.0,0.0,0.0,0.0,0.0
1581180803887463076,188,0,,0.261202557293,-0.201328362011,-0.102355359782,-0.938490007958,0.0,0.0,0.0,0.0,0.0,0.0,0.0,0.0,0.0,-0.000906,0.000339,-7.9e-05,0.0,0.0,0.0,0.0,0.0,0.0,0.0,0.0,0.0,0.064,0.077,-9.802,0.0,0.0,0.0,0.0,0.0,0.0,0.0,0.0,0.0
1581180803945702446,189,0,,0.260485248124,-0.19928137754,-0.102613644396,-0.939097869266,0.0,0.0,0.0,0.0,0.0,0.0,0.0,0.0,0.0,-0.000429,-0.001737,3.5e-05,0.0,0.0,0.0,0.0,0.0,0.0,0.0,0.0,0.0,0.061,0.104,-9.813,0.0,0.0,0.0,0.0,0.0,0.0,0.0,0.0,0.0
1581180804002660176,190,0,,0.260380433703,-0.199883886398,-0.102263936084,-0.939037032858,0.0,0.0,0.0,0.0,0.0,0.0,0.0,0.0,0.0,-0.000403,0.00011,2.1e-05,0.0,0.0,0.0,0.0,0.0,0.0,0.0,0.0,0.0,0.082,0.083,-9.781,0.0,0.0,0.0,0.0,0.0,0.0,0.0,0.0,0.0
1581180804059846327,191,0,,0.260174741151,-0.200616402582,-0.101444788141,-0.939026686544,0.0,0.0,0.0,0.0,0.0,0.0,0.0,0.0,0.0,-0.000267,0.000126,0.000632,0.0,0.0,0.0,0.0,0.0,0.0,0.0,0.0,0.0,0.068,0.106,-9.783,0.0,0.0,0.0,0.0,0.0,0.0,0.0,0.0,0.0
1581180804118187300,192,0,,0.260949803407,-0.199702279513,-0.102833305788,-0.938855425973,0.0,0.0,0.0,0.0,0.0,0.0,0.0,0.0,0.0,0.000511,9e-06,0.001025,0.0,0.0,0.0,0.0,0.0,0.0,0.0,0.0,0.0,0.066,0.094,-9.817,0.0,0.0,0.0,0.0,0.0,0.0,0.0,0.0,0.0
1581180804175139581,193,0,,0.260949803407,-0.199702279513,-0.102833305788,-0.938855425973,0.0,0.0,0.0,0.0,0.0,0.0,0.0,0.0,0.0,0.000314,-0.000227,-0.00011,0.0,0.0,0.0,0.0,0.0,0.0,0.0,0.0,0.0,0.087,0.081,-9.787,0.0,0.0,0.0,0.0,0.0,0.0,0.0,0.0,0.0
1581180804234217717,194,0,,0.261509233031,-0.200464305745,-0.103642843178,-0.938448264008,0.0,0.0,0.0,0.0,0.0,0.0,0.0,0.0,0.0,-0.000142,-0.000637,0.000202,0.0,0.0,0.0,0.0,0.0,0.0,0.0,0.0,0.0,0.074,0.101,-9.821,0.0,0.0,0.0,0.0,0.0,0.0,0.0,0.0,0.0
1581180804296919307,195,0,,0.261509233031,-0.200464305745,-0.103642843178,-0.938448264008,0.0,0.0,0.0,0.0,0.0,0.0,0.0,0.0,0.0,0.000834,0.000438,0.000185,0.0,0.0,0.0,0.0,0.0,0.0,0.0,0.0,0.0,0.067,0.111,-9.768,0.0,0.0,0.0,0.0,0.0,0.0,0.0,0.0,0.0
1581180804355522970,196,0,,0.260839329641,-0.200777041781,-0.102603967558,-0.938681974605,0.0,0.0,0.0,0.0,0.0,0.0,0.0,0.0,0.0,0.001028,-5.5e-05,-0.000627,0.0,0.0,0.0,0.0,0.0,0.0,0.0,0.0,0.0,0.082,0.097,-9.771,0.0,0.0,0.0,0.0,0.0,0.0,0.0,0.0,0.0
1581180804413218744,197,0,,0.260944777098,-0.20017446329,-0.102953313613,-0.938743107973,0.0,0.0,0.0,0.0,0.0,0.0,0.0,0.0,0.0,0.001108,-0.000981,-5.6e-05,0.0,0.0,0.0,0.0,0.0,0.0,0.0,0.0,0.0,0.087,0.087,-9.771,0.0,0.0,0.0,0.0,0.0,0.0,0.0,0.0,0.0
1581180804473178202,198,0,,0.260849919653,-0.199832729446,-0.10236386524,-0.938906725267,0.0,0.0,0.0,0.0,0.0,0.0,0.0,0.0,0.0,0.000751,0.000222,0.000249,0.0,0.0,0.0,0.0,0.0,0.0,0.0,0.0,0.0,0.085,0.098,-9.805,0.0,0.0,0.0,0.0,0.0,0.0,0.0,0.0,0.0
1581180804529420506,199,0,,0.261518991219,-0.199520103349,-0.1034024936,-0.93867324981,0.0,0.0,0.0,0.0,0.0,0.0,0.0,0.0,0.0,-7e-05,-0.000148,0.000193,0.0,0.0,0.0,0.0,0.0,0.0,0.0,0.0,0.0,0.054,0.09,-9.797,0.0,0.0,0.0,0.0,0.0,0.0,0.0,0.0,0.0
1581180804621352070,200,0,,0.261123829274,-0.208533117932,-0.0999080131504,-0.937201511639,0.0,0.0,0.0,0.0,0.0,0.0,0.0,0.0,0.0,-0.000309,0.001476,-0.000523,0.0,0.0,0.0,0.0,0.0,0.0,0.0,0.0,0.0,0.07,0.074,-9.77,0.0,0.0,0.0,0.0,0.0,0.0,0.0,0.0,0.0
1581180804681113069,201,0,,0.260863648581,-0.208322286426,-0.100741016006,-0.937231684015,0.0,0.0,0.0,0.0,0.0,0.0,0.0,0.0,0.0,-0.00066,0.000466,0.000435,0.0,0.0,0.0,0.0,0.0,0.0,0.0,0.0,0.0,0.072,0.092,-9.794,0.0,0.0,0.0,0.0,0.0,0.0,0.0,0.0,0.0
1581180804738686918,202,0,,0.261636687954,-0.208350825525,-0.10237134925,-0.936833114206,0.0,0.0,0.0,0.0,0.0,0.0,0.0,0.0,0.0,-0.000898,6e-06,-0.000536,0.0,0.0,0.0,0.0,0.0,0.0,0.0,0.0,0.0,0.063,0.092,-9.783,0.0,0.0,0.0,0.0,0.0,0.0,0.0,0.0,0.0
1581180804798720202,203,0,,0.261755609172,-0.207277585362,-0.102598549093,-0.937013095638,0.0,0.0,0.0,0.0,0.0,0.0,0.0,0.0,0.0,6.2e-05,-0.001287,-0.000272,0.0,0.0,0.0,0.0,0.0,0.0,0.0,0.0,0.0,0.087,0.095,-9.809,0.0,0.0,0.0,0.0,0.0,0.0,0.0,0.0,0.0
1581180804857701329,204,0,,0.261859215241,-0.207146681653,-0.103067042796,-0.936961679239,0.0,0.0,0.0,0.0,0.0,0.0,0.0,0.0,0.0,0.000449,0.00037,-0.000448,0.0,0.0,0.0,0.0,0.0,0.0,0.0,0.0,0.0,0.085,0.075,-9.792,0.0,0.0,0.0,0.0,0.0,0.0,0.0,0.0,0.0
1581180804915714230,205,0,,0.261376510078,-0.208140712757,-0.103204073571,-0.936861079814,0.0,0.0,0.0,0.0,0.0,0.0,0.0,0.0,0.0,0.000421,-0.000437,-0.000653,0.0,0.0,0.0,0.0,0.0,0.0,0.0,0.0,0.0,0.087,0.099,-9.81,0.0,0.0,0.0,0.0,0.0,0.0,0.0,0.0,0.0
1581180804973655920,206,0,,0.261524521314,-0.208952729963,-0.102023599249,-0.936768309983,0.0,0.0,0.0,0.0,0.0,0.0,0.0,0.0,0.0,-0.000336,-0.001688,-0.000214,0.0,0.0,0.0,0.0,0.0,0.0,0.0,0.0,0.0,0.064,0.125,-9.792,0.0,0.0,0.0,0.0,0.0,0.0,0.0,0.0,0.0
1581180805034703861,207,0,,0.260959706177,-0.208663049147,-0.101330146253,-0.937065614102,0.0,0.0,0.0,0.0,0.0,0.0,0.0,0.0,0.0,0.000166,-1e-06,-0.000303,0.0,0.0,0.0,0.0,0.0,0.0,0.0,0.0,0.0,0.079,0.113,-9.805,0.0,0.0,0.0,0.0,0.0,0.0,0.0,0.0,0.0
1581180805091378355,208,0,,0.261064005078,-0.208532543217,-0.101798666374,-0.937014831898,0.0,0.0,0.0,0.0,0.0,0.0,0.0,0.0,0.0,0.000166,-0.002122,-0.00033,0.0,0.0,0.0,0.0,0.0,0.0,0.0,0.0,0.0,0.067,0.111,-9.792,0.0,0.0,0.0,0.0,0.0,0.0,0.0,0.0,0.0
1581180805150686178,209,0,,0.260951570003,-0.209134217562,-0.101450647938,-0.936949797583,0.0,0.0,0.0,0.0,0.0,0.0,0.0,0.0,0.0,0.001149,0.001594,0.000729,0.0,0.0,0.0,0.0,0.0,0.0,0.0,0.0,0.0,0.076,0.098,-9.795,0.0,0.0,0.0,0.0,0.0,0.0,0.0,0.0,0.0
1581180805207774354,210,0,,0.261210798122,-0.209344781526,-0.100618332535,-0.936920291461,0.0,0.0,0.0,0.0,0.0,0.0,0.0,0.0,0.0,0.001405,0.002383,-0.00046,0.0,0.0,0.0,0.0,0.0,0.0,0.0,0.0,0.0,0.08,0.088,-9.831,0.0,0.0,0.0,0.0,0.0,0.0,0.0,0.0,0.0
1581180805266281816,211,0,,0.260628667146,-0.209996512794,-0.100165759899,-0.936985049518,0.0,0.0,0.0,0.0,0.0,0.0,0.0,0.0,0.0,-0.000604,0.000586,-0.000301,0.0,0.0,0.0,0.0,0.0,0.0,0.0,0.0,0.0,0.102,0.079,-9.799,0.0,0.0,0.0,0.0,0.0,0.0,0.0,0.0,0.0
1581180805329963364,212,0,,0.260877547885,-0.210678376939,-0.0994548178038,-0.93683844163,0.0,0.0,0.0,0.0,0.0,0.0,0.0,0.0,0.0,-0.000962,-0.00021,-2.9e-05,0.0,0.0,0.0,0.0,0.0,0.0,0.0,0.0,0.0,0.11,0.068,-9.784,0.0,0.0,0.0,0.0,0.0,0.0,0.0,0.0,0.0
1581180805389194784,213,0,,0.260666739104,-0.210939149104,-0.0985179297909,-0.936937428012,0.0,0.0,0.0,0.0,0.0,0.0,0.0,0.0,0.0,0.000256,-0.000399,0.001105,0.0,0.0,0.0,0.0,0.0,0.0,0.0,0.0,0.0,0.09,0.103,-9.814,0.0,0.0,0.0,0.0,0.0,0.0,0.0,0.0,0.0
1581180805447587178,214,0,,0.260762373137,-0.211279713022,-0.0991073961691,-0.936771899475,0.0,0.0,0.0,0.0,0.0,0.0,0.0,0.0,0.0,-0.001165,-0.001481,-7e-05,0.0,0.0,0.0,0.0,0.0,0.0,0.0,0.0,0.0,0.071,0.074,-9.797,0.0,0.0,0.0,0.0,0.0,0.0,0.0,0.0,0.0
1581180805506788226,215,0,,0.260762373137,-0.211279713022,-0.0991073961691,-0.936771899475,0.0,0.0,0.0,0.0,0.0,0.0,0.0,0.0,0.0,-0.001756,-0.000468,-0.000741,0.0,0.0,0.0,0.0,0.0,0.0,0.0,0.0,0.0,0.067,0.094,-9.802,0.0,0.0,0.0,0.0,0.0,0.0,0.0,0.0,0.0
1581180805562940755,216,0,,0.261240587501,-0.21075926983,-0.0990917781877,-0.936757548738,0.0,0.0,0.0,0.0,0.0,0.0,0.0,0.0,0.0,0.000106,0.000234,2.4e-05,0.0,0.0,0.0,0.0,0.0,0.0,0.0,0.0,0.0,0.084,0.098,-9.798,0.0,0.0,0.0,0.0,0.0,0.0,0.0,0.0,0.0
1581180805622967125,217,0,,0.261230726472,-0.211230132916,-0.0992130236328,-0.936641401197,0.0,0.0,0.0,0.0,0.0,0.0,0.0,0.0,0.0,-1.6e-05,0.001387,0.00087,0.0,0.0,0.0,0.0,0.0,0.0,0.0,0.0,0.0,0.076,0.089,-9.796,0.0,0.0,0.0,0.0,0.0,0.0,0.0,0.0,0.0
1581180805679907481,218,0,,0.261019365759,-0.211491257984,-0.0982763327812,-0.936740145884,0.0,0.0,0.0,0.0,0.0,0.0,0.0,0.0,0.0,0.000155,-0.00109,0.000203,0.0,0.0,0.0,0.0,0.0,0.0,0.0,0.0,0.0,0.078,0.065,-9.792,0.0,0.0,0.0,0.0,0.0,0.0,0.0,0.0,0.0
1581180805739667221,219,0,,0.261114917016,-0.211831527127,-0.0988659693676,-0.93657456955,0.0,0.0,0.0,0.0,0.0,0.0,0.0,0.0,0.0,-0.000178,-0.00123,0.000901,0.0,0.0,0.0,0.0,0.0,0.0,0.0,0.0,0.0,0.104,0.09,-9.779,0.0,0.0,0.0,0.0,0.0,0.0,0.0,0.0,0.0
1581180805802351411,220,0,,0.261125078756,-0.21136072187,-0.0987446905501,-0.936690890627,0.0,0.0,0.0,0.0,0.0,0.0,0.0,0.0,0.0,-0.001428,-0.002966,-0.000783,0.0,0.0,0.0,0.0,0.0,0.0,0.0,0.0,0.0,0.08,0.116,-9.828,0.0,0.0,0.0,0.0,0.0,0.0,0.0,0.0,0.0
1581180805862724835,221,0,,0.261326617951,-0.211570306337,-0.0998024943481,-0.93647523531,0.0,0.0,0.0,0.0,0.0,0.0,0.0,0.0,0.0,0.000503,0.001006,0.00041,0.0,0.0,0.0,0.0,0.0,0.0,0.0,0.0,0.0,0.077,0.088,-9.81,0.0,0.0,0.0,0.0,0.0,0.0,0.0,0.0,0.0
1581180805921113661,222,0,,0.261794822883,-0.211520378646,-0.0999082670215,-0.936344454947,0.0,0.0,0.0,0.0,0.0,0.0,0.0,0.0,0.0,0.000172,0.000253,-2.6e-05,0.0,0.0,0.0,0.0,0.0,0.0,0.0,0.0,0.0,0.071,0.087,-9.797,0.0,0.0,0.0,0.0,0.0,0.0,0.0,0.0,0.0
1581180805981035625,223,0,,0.261104689997,-0.212302279425,-0.0989872234687,-0.93645801433,0.0,0.0,0.0,0.0,0.0,0.0,0.0,0.0,0.0,0.000685,0.000424,-0.000345,0.0,0.0,0.0,0.0,0.0,0.0,0.0,0.0,0.0,0.063,0.095,-9.794,0.0,0.0,0.0,0.0,0.0,0.0,0.0,0.0,0.0
1581180806041974088,224,0,,0.261008968618,-0.211962058101,-0.0983976697441,-0.936623885461,0.0,0.0,0.0,0.0,0.0,0.0,0.0,0.0,0.0,-0.00036,-0.001258,-1.4e-05,0.0,0.0,0.0,0.0,0.0,0.0,0.0,0.0,0.0,0.094,0.123,-9.801,0.0,0.0,0.0,0.0,0.0,0.0,0.0,0.0,0.0
1581180806099464072,225,0,,0.260998506224,-0.212432805227,-0.0985189821076,-0.936507390882,0.0,0.0,0.0,0.0,0.0,0.0,0.0,0.0,0.0,0.000515,0.000333,-0.000679,0.0,0.0,0.0,0.0,0.0,0.0,0.0,0.0,0.0,0.067,0.078,-9.831,0.0,0.0,0.0,0.0,0.0,0.0,0.0,0.0,0.0
1581180806156719295,226,0,,0.26079687609,-0.212222961045,-0.0974609968159,-0.936721814802,0.0,0.0,0.0,0.0,0.0,0.0,0.0,0.0,0.0,-0.000727,-7.3e-05,0.000194,0.0,0.0,0.0,0.0,0.0,0.0,0.0,0.0,0.0,0.075,0.09,-9.815,0.0,0.0,0.0,0.0,0.0,0.0,0.0,0.0,0.0
1581180806214637831,227,0,,0.260807744027,-0.211752171561,-0.0973395436533,-0.93683795383,0.0,0.0,0.0,0.0,0.0,0.0,0.0,0.0,0.0,-0.00026,-0.001462,-0.00087,0.0,0.0,0.0,0.0,0.0,0.0,0.0,0.0,0.0,0.075,0.082,-9.797,0.0,0.0,0.0,0.0,0.0,0.0,0.0,0.0,0.0
1581180806273575418,228,0,,0.260998506224,-0.212432805227,-0.0985189821076,-0.936507390882,0.0,0.0,0.0,0.0,0.0,0.0,0.0,0.0,0.0,0.000847,0.001762,0.000516,0.0,0.0,0.0,0.0,0.0,0.0,0.0,0.0,0.0,0.097,0.11,-9.801,0.0,0.0,0.0,0.0,0.0,0.0,0.0,0.0,0.0
1581180806331141138,229,0,,0.26177512824,-0.212461728973,-0.100150987717,-0.936110877843,0.0,0.0,0.0,0.0,0.0,0.0,0.0,0.0,0.0,-0.00063,-0.00116,-0.000491,0.0,0.0,0.0,0.0,0.0,0.0,0.0,0.0,0.0,0.107,0.102,-9.797,0.0,0.0,0.0,0.0,0.0,0.0,0.0,0.0,0.0
1581180806390321558,230,0,,0.262243150937,-0.212411626924,-0.100257206058,-0.935979873271,0.0,0.0,0.0,0.0,0.0,0.0,0.0,0.0,0.0,0.000579,-0.000198,-0.000671,0.0,0.0,0.0,0.0,0.0,0.0,0.0,0.0,0.0,0.063,0.09,-9.79,0.0,0.0,0.0,0.0,0.0,0.0,0.0,0.0,0.0
1581180806449925069,231,0,,0.261890971097,-0.211860161311,-0.100497741241,-0.936177651577,0.0,0.0,0.0,0.0,0.0,0.0,0.0,0.0,0.0,-0.000477,-0.000487,-0.000329,0.0,0.0,0.0,0.0,0.0,0.0,0.0,0.0,0.0,0.071,0.095,-9.789,0.0,0.0,0.0,0.0,0.0,0.0,0.0,0.0,0.0
1581180806508757396,232,0,,0.261625513675,-0.212119578418,-0.101448993733,-0.936090528056,0.0,0.0,0.0,0.0,0.0,0.0,0.0,0.0,0.0,0.000277,0.000662,0.00052,0.0,0.0,0.0,0.0,0.0,0.0,0.0,0.0,0.0,0.064,0.075,-9.825,0.0,0.0,0.0,0.0,0.0,0.0,0.0,0.0,0.0
1581180806566934050,233,0,,0.262428204991,-0.210734043514,-0.102716846586,-0.936040517049,0.0,0.0,0.0,0.0,0.0,0.0,0.0,0.0,0.0,-0.000149,-0.001731,0.000483,0.0,0.0,0.0,0.0,0.0,0.0,0.0,0.0,0.0,0.071,0.075,-9.772,0.0,0.0,0.0,0.0,0.0,0.0,0.0,0.0,0.0
1581180806621141509,234,0,,0.261863240383,-0.210445491377,-0.102022497163,-0.93633954769,0.0,0.0,0.0,0.0,0.0,0.0,0.0,0.0,0.0,-0.001017,-0.000249,0.000199,0.0,0.0,0.0,0.0,0.0,0.0,0.0,0.0,0.0,0.066,0.076,-9.766,0.0,0.0,0.0,0.0,0.0,0.0,0.0,0.0,0.0
1581180806683735434,235,0,,0.261613322825,-0.209764016982,-0.102733136495,-0.936484612349,0.0,0.0,0.0,0.0,0.0,0.0,0.0,0.0,0.0,-0.000552,0.001184,0.000295,0.0,0.0,0.0,0.0,0.0,0.0,0.0,0.0,0.0,0.088,0.091,-9.771,0.0,0.0,0.0,0.0,0.0,0.0,0.0,0.0,0.0
1581180806743074432,236,0,,0.261048138635,-0.209474835814,-0.102039528417,-0.936782844162,0.0,0.0,0.0,0.0,0.0,0.0,0.0,0.0,0.0,0.000549,-0.001265,0.000384,0.0,0.0,0.0,0.0,0.0,0.0,0.0,0.0,0.0,0.08,0.076,-9.823,0.0,0.0,0.0,0.0,0.0,0.0,0.0,0.0,0.0
1581180806801799919,237,0,,0.261613322825,-0.209764016982,-0.102733136495,-0.936484612349,0.0,0.0,0.0,0.0,0.0,0.0,0.0,0.0,0.0,-0.000342,-0.00013,-0.000488,0.0,0.0,0.0,0.0,0.0,0.0,0.0,0.0,0.0,0.08,0.081,-9.814,0.0,0.0,0.0,0.0,0.0,0.0,0.0,0.0,0.0
1581180806860404260,238,0,,0.261500253455,-0.210365752493,-0.102385484091,-0.936419286574,0.0,0.0,0.0,0.0,0.0,0.0,0.0,0.0,0.0,-0.00045,0.000298,-3.4e-05,0.0,0.0,0.0,0.0,0.0,0.0,0.0,0.0,0.0,0.072,0.097,-9.81,0.0,0.0,0.0,0.0,0.0,0.0,0.0,0.0,0.0
1581180806919556924,239,0,,0.261386582406,-0.210967374633,-0.102037897187,-0.93635361318,0.0,0.0,0.0,0.0,0.0,0.0,0.0,0.0,0.0,-0.001353,0.000429,0.000938,0.0,0.0,0.0,0.0,0.0,0.0,0.0,0.0,0.0,0.081,0.085,-9.803,0.0,0.0,0.0,0.0,0.0,0.0,0.0,0.0,0.0
1581180806976818828,240,0,,0.26102384951,-0.210887881651,-0.102400630083,-0.936433106163,0.0,0.0,0.0,0.0,0.0,0.0,0.0,0.0,0.0,0.001045,-0.000353,9.9e-05,0.0,0.0,0.0,0.0,0.0,0.0,0.0,0.0,0.0,0.077,0.093,-9.795,0.0,0.0,0.0,0.0,0.0,0.0,0.0,0.0,0.0
1581180807037288856,241,0,,0.260458436992,-0.210598288315,-0.101706714269,-0.936731289021,0.0,0.0,0.0,0.0,0.0,0.0,0.0,0.0,0.0,0.00054,9e-05,0.000449,0.0,0.0,0.0,0.0,0.0,0.0,0.0,0.0,0.0,0.065,0.072,-9.79,0.0,0.0,0.0,0.0,0.0,0.0,0.0,0.0,0.0
1581180807091785080,242,0,,0.260676707562,-0.209866645219,-0.102523321146,-0.936745757386,0.0,0.0,0.0,0.0,0.0,0.0,0.0,0.0,0.0,-0.001005,-0.000551,0.000137,0.0,0.0,0.0,0.0,0.0,0.0,0.0,0.0,0.0,0.078,0.104,-9.785,0.0,0.0,0.0,0.0,0.0,0.0,0.0,0.0,0.0
1581180807149907791,243,0,,0.260466710614,-0.21012721695,-0.101586524283,-0.936847812317,0.0,0.0,0.0,0.0,0.0,0.0,0.0,0.0,0.0,-0.001674,0.000568,-0.001056,0.0,0.0,0.0,0.0,0.0,0.0,0.0,0.0,0.0,0.095,0.085,-9.788,0.0,0.0,0.0,0.0,0.0,0.0,0.0,0.0,0.0
1581180807211893019,244,0,,0.26024770851,-0.210858641409,-0.100769932283,-0.936832527353,0.0,0.0,0.0,0.0,0.0,0.0,0.0,0.0,0.0,-0.000409,0.000334,0.000331,0.0,0.0,0.0,0.0,0.0,0.0,0.0,0.0,0.0,0.079,0.1,-9.757,0.0,0.0,0.0,0.0,0.0,0.0,0.0,0.0,0.0
1581180807269246311,245,0,,0.260716092223,-0.210808230088,-0.100875349003,-0.9367022864,0.0,0.0,0.0,0.0,0.0,0.0,0.0,0.0,0.0,0.000869,-0.000412,-0.000452,0.0,0.0,0.0,0.0,0.0,0.0,0.0,0.0,0.0,0.082,0.105,-9.806,0.0,0.0,0.0,0.0,0.0,0.0,0.0,0.0,0.0
1581180807327202553,246,0,,0.260821463744,-0.210677845696,-0.101343687517,-0.93665173164,0.0,0.0,0.0,0.0,0.0,0.0,0.0,0.0,0.0,5.6e-05,0.001884,-0.000725,0.0,0.0,0.0,0.0,0.0,0.0,0.0,0.0,0.0,0.085,0.104,-9.792,0.0,0.0,0.0,0.0,0.0,0.0,0.0,0.0,0.0
1581180807386093394,247,0,,0.261386582406,-0.210967374633,-0.102037897187,-0.93635361318,0.0,0.0,0.0,0.0,0.0,0.0,0.0,0.0,0.0,2.9e-05,-0.00073,0.001049,0.0,0.0,0.0,0.0,0.0,0.0,0.0,0.0,0.0,0.047,0.072,-9.828,0.0,0.0,0.0,0.0,0.0,0.0,0.0,0.0,0.0
1581180807444947362,248,0,,0.261661583278,-0.210236367485,-0.100965093853,-0.9365574918,0.0,0.0,0.0,0.0,0.0,0.0,0.0,0.0,0.0,-0.002133,0.000277,0.000335,0.0,0.0,0.0,0.0,0.0,0.0,0.0,0.0,0.0,0.064,0.103,-9.798,0.0,0.0,0.0,0.0,0.0,0.0,0.0,0.0,0.0
1581180807507604881,249,0,,0.261298382603,-0.210156200834,-0.101328294528,-0.936637658451,0.0,0.0,0.0,0.0,0.0,0.0,0.0,0.0,0.0,0.000329,-0.000373,0.000358,0.0,0.0,0.0,0.0,0.0,0.0,0.0,0.0,0.0,0.102,0.093,-9.794,0.0,0.0,0.0,0.0,0.0,0.0,0.0,0.0,0.0
1581180807564814505,250,0,,0.261508408119,-0.209894797417,-0.102264881367,-0.936535861854,0.0,0.0,0.0,0.0,0.0,0.0,0.0,0.0,0.0,-7e-05,-0.001167,0.000204,0.0,0.0,0.0,0.0,0.0,0.0,0.0,0.0,0.0,0.063,0.107,-9.78,0.0,0.0,0.0,0.0,0.0,0.0,0.0,0.0,0.0
1581180807625406531,251,0,,0.262089444392,-0.209241673004,-0.102717200062,-0.936470086136,0.0,0.0,0.0,0.0,0.0,0.0,0.0,0.0,0.0,-0.000795,0.00061,0.00082,0.0,0.0,0.0,0.0,0.0,0.0,0.0,0.0,0.0,0.095,0.091,-9.789,0.0,0.0,0.0,0.0,0.0,0.0,0.0,0.0,0.0
1581180807684892070,252,0,,0.262234889456,-0.210054767479,-0.10153840003,-0.936375891793,0.0,0.0,0.0,0.0,0.0,0.0,0.0,0.0,0.0,0.00021,-2.5e-05,-0.000409,0.0,0.0,0.0,0.0,0.0,0.0,0.0,0.0,0.0,0.075,0.072,-9.793,0.0,0.0,0.0,0.0,0.0,0.0,0.0,0.0,0.0
1581180807747029022,253,0,,0.261411752826,-0.209554521933,-0.101675914226,-0.936703158043,0.0,0.0,0.0,0.0,0.0,0.0,0.0,0.0,0.0,-3.6e-05,0.000918,0.000528,0.0,0.0,0.0,0.0,0.0,0.0,0.0,0.0,0.0,0.066,0.061,-9.818,0.0,0.0,0.0,0.0,0.0,0.0,0.0,0.0,0.0
1581180807836522770,254,0,,0.26160540364,-0.210234976076,-0.102853680917,-0.936367976782,0.0,0.0,0.0,0.0,0.0,0.0,0.0,0.0,0.0,-0.000479,0.001145,-0.00609,0.0,0.0,0.0,0.0,0.0,0.0,0.0,0.0,0.0,0.07,0.091,-9.789,0.0,0.0,0.0,0.0,0.0,0.0,0.0,0.0,0.0
1581180807895077299,255,0,,0.258725525628,-0.204073837826,-0.101977660883,-0.938624274023,0.0,0.0,0.0,0.0,0.0,0.0,0.0,0.0,0.0,-0.001133,0.000883,-0.000371,0.0,0.0,0.0,0.0,0.0,0.0,0.0,0.0,0.0,0.079,0.124,-9.783,0.0,0.0,0.0,0.0,0.0,0.0,0.0,0.0,0.0
1581180807952518109,256,0,,0.259958752863,-0.204525781158,-0.103827748386,-0.937982116203,0.0,0.0,0.0,0.0,0.0,0.0,0.0,0.0,0.0,-0.001249,0.001451,-0.000389,0.0,0.0,0.0,0.0,0.0,0.0,0.0,0.0,0.0,0.097,0.083,-9.805,0.0,0.0,0.0,0.0,0.0,0.0,0.0,0.0,0.0
1581180808011923735,257,0,,0.259953188918,-0.204997578702,-0.103947025741,-0.937867446997,0.0,0.0,0.0,0.0,0.0,0.0,0.0,0.0,0.0,-0.000181,0.001326,0.000714,0.0,0.0,0.0,0.0,0.0,0.0,0.0,0.0,0.0,0.078,0.106,-9.796,0.0,0.0,0.0,0.0,0.0,0.0,0.0,0.0,0.0
1581180808070963480,258,0,,0.260114378899,-0.205335981992,-0.102642788975,-0.937892372429,0.0,0.0,0.0,0.0,0.0,0.0,0.0,0.0,0.0,-0.000499,0.000987,-0.001235,0.0,0.0,0.0,0.0,0.0,0.0,0.0,0.0,0.0,0.086,0.094,-9.792,0.0,0.0,0.0,0.0,0.0,0.0,0.0,0.0,0.0
1581180808130259718,259,0,,0.260782467213,-0.205495572918,-0.10380293529,-0.93754414559,0.0,0.0,0.0,0.0,0.0,0.0,0.0,0.0,0.0,-0.000993,0.000622,0.000481,0.0,0.0,0.0,0.0,0.0,0.0,0.0,0.0,0.0,0.062,0.073,-9.79,0.0,0.0,0.0,0.0,0.0,0.0,0.0,0.0,0.0
1581180808187339028,260,0,,0.261058584421,-0.204761627589,-0.102727916828,-0.937746269772,0.0,0.0,0.0,0.0,0.0,0.0,0.0,0.0,0.0,-0.000475,0.00014,-0.000354,0.0,0.0,0.0,0.0,0.0,0.0,0.0,0.0,0.0,0.085,0.078,-9.789,0.0,0.0,0.0,0.0,0.0,0.0,0.0,0.0,0.0
1581180808246184019,261,0,,0.260956170979,-0.20489213128,-0.102259030872,-0.93779751651,0.0,0.0,0.0,0.0,0.0,0.0,0.0,0.0,0.0,-0.00123,-0.000595,0.000205,0.0,0.0,0.0,0.0,0.0,0.0,0.0,0.0,0.0,0.064,0.063,-9.781,0.0,0.0,0.0,0.0,0.0,0.0,0.0,0.0,0.0
1581180808306915521,262,0,,0.260164807899,-0.206276994417,-0.100989839959,-0.937851334983,0.0,0.0,0.0,0.0,0.0,0.0,0.0,0.0,0.0,6.4e-05,-0.000903,-0.000518,0.0,0.0,0.0,0.0,0.0,0.0,0.0,0.0,0.0,0.08,0.065,-9.801,0.0,0.0,0.0,0.0,0.0,0.0,0.0,0.0,0.0
1581180808369978683,263,0,,0.260069267176,-0.205935450971,-0.100400719999,-0.938016130846,0.0,0.0,0.0,0.0,0.0,0.0,0.0,0.0,0.0,-0.000329,0.001035,0.000405,0.0,0.0,0.0,0.0,0.0,0.0,0.0,0.0,0.0,0.08,0.106,-9.792,0.0,0.0,0.0,0.0,0.0,0.0,0.0,0.0,0.0
1581180808430242062,264,0,,0.260260690117,-0.206618442151,-0.101578794828,-0.937685950083,0.0,0.0,0.0,0.0,0.0,0.0,0.0,0.0,0.0,0.000213,0.001016,0.001173,0.0,0.0,0.0,0.0,0.0,0.0,0.0,0.0,0.0,0.07,0.096,-9.761,0.0,0.0,0.0,0.0,0.0,0.0,0.0,0.0,0.0
1581180808487011504,265,0,,0.260260690117,-0.206618442151,-0.101578794828,-0.937685950083,0.0,0.0,0.0,0.0,0.0,0.0,0.0,0.0,0.0,0.000628,-0.002311,-0.00075,0.0,0.0,0.0,0.0,0.0,0.0,0.0,0.0,0.0,0.082,0.069,-9.798,0.0,0.0,0.0,0.0,0.0,0.0,0.0,0.0,0.0
1581180808547148795,266,0,,0.260618602097,-0.207169406316,-0.10133361048,-0.937491483009,0.0,0.0,0.0,0.0,0.0,0.0,0.0,0.0,0.0,-0.000177,0.002302,-0.00083,0.0,0.0,0.0,0.0,0.0,0.0,0.0,0.0,0.0,0.078,0.078,-9.796,0.0,0.0,0.0,0.0,0.0,0.0,0.0,0.0,0.0
1581180808608160532,267,0,,0.259777287054,-0.207612282358,-0.101715008882,-0.937585707183,0.0,0.0,0.0,0.0,0.0,0.0,0.0,0.0,0.0,-0.000597,-0.001553,0.000487,0.0,0.0,0.0,0.0,0.0,0.0,0.0,0.0,0.0,0.082,0.09,-9.818,0.0,0.0,0.0,0.0,0.0,0.0,0.0,0.0,0.0
1581180808670794863,268,0,,0.258996675472,-0.208051842835,-0.100204503028,-0.937866840421,0.0,0.0,0.0,0.0,0.0,0.0,0.0,0.0,0.0,-0.000731,0.000489,-0.000446,0.0,0.0,0.0,0.0,0.0,0.0,0.0,0.0,0.0,0.065,0.108,-9.815,0.0,0.0,0.0,0.0,0.0,0.0,0.0,0.0,0.0
1581180808727815192,269,0,,0.259577312687,-0.207400450901,-0.100657502004,-0.937802078796,0.0,0.0,0.0,0.0,0.0,0.0,0.0,0.0,0.0,0.001168,-0.000889,-7e-05,0.0,0.0,0.0,0.0,0.0,0.0,0.0,0.0,0.0,0.071,0.079,-9.829,0.0,0.0,0.0,0.0,0.0,0.0,0.0,0.0,0.0
1581180808785015303,270,0,,0.259784583315,-0.207140769931,-0.101595253597,-0.93770095241,0.0,0.0,0.0,0.0,0.0,0.0,0.0,0.0,0.0,-0.000932,0.001753,0.000221,0.0,0.0,0.0,0.0,0.0,0.0,0.0,0.0,0.0,0.084,0.069,-9.811,0.0,0.0,0.0,0.0,0.0,0.0,0.0,0.0,0.0
1581180808848004604,271,0,,0.259412260887,-0.207533433726,-0.102080035049,-0.937664555815,0.0,0.0,0.0,0.0,0.0,0.0,0.0,0.0,0.0,0.000252,0.000289,0.000246,0.0,0.0,0.0,0.0,0.0,0.0,0.0,0.0,0.0,0.064,0.085,-9.802,0.0,0.0,0.0,0.0,0.0,0.0,0.0,0.0,0.0
1581180808905914566,272,0,,0.258957221854,-0.206641125065,-0.10173777797,-0.938024534442,0.0,0.0,0.0,0.0,0.0,0.0,0.0,0.0,0.0,-8.1e-05,-0.001064,0.000954,0.0,0.0,0.0,0.0,0.0,0.0,0.0,0.0,0.0,0.095,0.096,-9.775,0.0,0.0,0.0,0.0,0.0,0.0,0.0,0.0,0.0
1581180808970536693,273,0,,0.259632662215,-0.206330700895,-0.102778929673,-0.937792628567,0.0,0.0,0.0,0.0,0.0,0.0,0.0,0.0,0.0,0.000988,-0.001081,-0.00034,0.0,0.0,0.0,0.0,0.0,0.0,0.0,0.0,0.0,0.082,0.105,-9.812,0.0,0.0,0.0,0.0,0.0,0.0,0.0,0.0,0.0
1581180809033983498,274,0,,0.260473930589,-0.20588651529,-0.10239650282,-0.937698795198,0.0,0.0,0.0,0.0,0.0,0.0,0.0,0.0,0.0,-0.001178,-0.001325,0.000268,0.0,0.0,0.0,0.0,0.0,0.0,0.0,0.0,0.0,0.102,0.09,-9.771,0.0,0.0,0.0,0.0,0.0,0.0,0.0,0.0,0.0
1581180809090092727,275,0,,0.260363966802,-0.206488285984,-0.102047625086,-0.937635043477,0.0,0.0,0.0,0.0,0.0,0.0,0.0,0.0,0.0,0.000282,0.001339,6.3e-05,0.0,0.0,0.0,0.0,0.0,0.0,0.0,0.0,0.0,0.117,0.087,-9.804,0.0,0.0,0.0,0.0,0.0,0.0,0.0,0.0,0.0
1581180809147296501,276,0,,0.260267913871,-0.206146886234,-0.101458752983,-0.937800722834,0.0,0.0,0.0,0.0,0.0,0.0,0.0,0.0,0.0,7.4e-05,-0.002168,0.001048,0.0,0.0,0.0,0.0,0.0,0.0,0.0,0.0,0.0,0.098,0.096,-9.783,0.0,0.0,0.0,0.0,0.0,0.0,0.0,0.0,0.0
1581180809205626614,277,0,,0.260570324871,-0.206227818817,-0.10298520895,-0.937532527052,0.0,0.0,0.0,0.0,0.0,0.0,0.0,0.0,0.0,0.001007,0.000221,1.5e-05,0.0,0.0,0.0,0.0,0.0,0.0,0.0,0.0,0.0,0.097,0.077,-9.798,0.0,0.0,0.0,0.0,0.0,0.0,0.0,0.0,0.0
1581180809270287227,278,0,,0.259735795107,-0.206200858778,-0.10324781312,-0.93774112188,0.0,0.0,0.0,0.0,0.0,0.0,0.0,0.0,0.0,0.000844,0.002337,0.000204,0.0,0.0,0.0,0.0,0.0,0.0,0.0,0.0,0.0,0.072,0.086,-9.773,0.0,0.0,0.0,0.0,0.0,0.0,0.0,0.0,0.0
1581180809336281325,279,0,,0.260250485043,-0.205550875589,-0.105591840834,-0.937480072177,0.0,0.0,0.0,0.0,0.0,0.0,0.0,0.0,0.0,0.000931,-0.001404,0.000314,0.0,0.0,0.0,0.0,0.0,0.0,0.0,0.0,0.0,0.079,0.079,-9.778,0.0,0.0,0.0,0.0,0.0,0.0,0.0,0.0,0.0
1581180809403741826,280,0,,0.259781712496,-0.205603645813,-0.105489052201,-0.937610080229,0.0,0.0,0.0,0.0,0.0,0.0,0.0,0.0,0.0,-0.000338,0.000309,-0.000405,0.0,0.0,0.0,0.0,0.0,0.0,0.0,0.0,0.0,0.079,0.099,-9.778,0.0,0.0,0.0,0.0,0.0,0.0,0.0,0.0,0.0
1581180809463157033,281,0,,0.259791504975,-0.20466006972,-0.10525139257,-0.937840484394,0.0,0.0,0.0,0.0,0.0,0.0,0.0,0.0,0.0,-0.000327,0.001232,0.000944,0.0,0.0,0.0,0.0,0.0,0.0,0.0,0.0,0.0,0.077,0.103,-9.77,0.0,0.0,0.0,0.0,0.0,0.0,0.0,0.0,0.0
1581180809521298341,282,0,,0.259856457482,-0.204655734963,-0.103358744369,-0.938033912827,0.0,0.0,0.0,0.0,0.0,0.0,0.0,0.0,0.0,-0.000939,-6e-05,-0.000879,0.0,0.0,0.0,0.0,0.0,0.0,0.0,0.0,0.0,0.038,0.088,-9.795,0.0,0.0,0.0,0.0,0.0,0.0,0.0,0.0,0.0
1581180809579457466,283,0,,0.260427711407,-0.20447384172,-0.103929998294,-0.937852019584,0.0,0.0,0.0,0.0,0.0,0.0,0.0,0.0,0.0,0.001133,-0.000547,-0.000749,0.0,0.0,0.0,0.0,0.0,0.0,0.0,0.0,0.0,0.057,0.083,-9.79,0.0,0.0,0.0,0.0,0.0,0.0,0.0,0.0,0.0
1581180809637776216,284,0,,0.259597191507,-0.203975988102,-0.104075505386,-0.938174495293,0.0,0.0,0.0,0.0,0.0,0.0,0.0,0.0,0.0,0.001334,0.000656,0.000643,0.0,0.0,0.0,0.0,0.0,0.0,0.0,0.0,0.0,0.077,0.077,-9.784,0.0,0.0,0.0,0.0,0.0,0.0,0.0,0.0,0.0
1581180809698348406,285,0,,0.259805706582,-0.203244322136,-0.104894705851,-0.938184332118,0.0,0.0,0.0,0.0,0.0,0.0,0.0,0.0,0.0,-0.000464,-0.001062,0.000461,0.0,0.0,0.0,0.0,0.0,0.0,0.0,0.0,0.0,0.077,0.08,-9.813,0.0,0.0,0.0,0.0,0.0,0.0,0.0,0.0,0.0
1581180809756245245,286,0,,0.259637331524,-0.203379543264,-0.106318937468,-0.938041310922,0.0,0.0,0.0,0.0,0.0,0.0,0.0,0.0,0.0,0.000426,0.001998,-0.000264,0.0,0.0,0.0,0.0,0.0,0.0,0.0,0.0,0.0,0.07,0.081,-9.804,0.0,0.0,0.0,0.0,0.0,0.0,0.0,0.0,0.0
1581180809815027491,287,0,,0.259633362931,-0.203851525037,-0.106437425017,-0.937926514792,0.0,0.0,0.0,0.0,0.0,0.0,0.0,0.0,0.0,0.000506,0.001447,0.000111,0.0,0.0,0.0,0.0,0.0,0.0,0.0,0.0,0.0,0.074,0.097,-9.772,0.0,0.0,0.0,0.0,0.0,0.0,0.0,0.0,0.0
1581180809876037244,288,0,,0.260774774139,-0.203484312715,-0.107578836225,-0.93755930247,0.0,0.0,0.0,0.0,0.0,0.0,0.0,0.0,0.0,-0.0006,-0.000723,0.000197,0.0,0.0,0.0,0.0,0.0,0.0,0.0,0.0,0.0,0.089,0.097,-9.796,0.0,0.0,0.0,0.0,0.0,0.0,0.0,0.0,0.0
1581180809935033255,289,0,,0.261345203763,-0.20329985068,-0.108149265849,-0.937374840435,0.0,0.0,0.0,0.0,0.0,0.0,0.0,0.0,0.0,-0.000912,-0.000726,0.001007,0.0,0.0,0.0,0.0,0.0,0.0,0.0,0.0,0.0,0.08,0.091,-9.773,0.0,0.0,0.0,0.0,0.0,0.0,0.0,0.0,0.0
1581180809994366341,290,0,,0.261606454165,-0.203979157846,-0.107432951269,-0.937236750925,0.0,0.0,0.0,0.0,0.0,0.0,0.0,0.0,0.0,0.000161,0.001923,-0.000154,0.0,0.0,0.0,0.0,0.0,0.0,0.0,0.0,0.0,0.063,0.071,-9.808,0.0,0.0,0.0,0.0,0.0,0.0,0.0,0.0,0.0
1581180810056371752,291,0,,0.261027146185,-0.205106744149,-0.107100508379,-0.937190233391,0.0,0.0,0.0,0.0,0.0,0.0,0.0,0.0,0.0,-0.000114,0.002007,-0.001093,0.0,0.0,0.0,0.0,0.0,0.0,0.0,0.0,0.0,0.08,0.073,-9.761,0.0,0.0,0.0,0.0,0.0,0.0,0.0,0.0,0.0
1581180810111980117,292,0,,0.260196385129,-0.204611900208,-0.107245474365,-0.937512783746,0.0,0.0,0.0,0.0,0.0,0.0,0.0,0.0,0.0,0.000214,0.000437,-0.000271,0.0,0.0,0.0,0.0,0.0,0.0,0.0,0.0,0.0,0.112,0.091,-9.823,0.0,0.0,0.0,0.0,0.0,0.0,0.0,0.0,0.0
1581180810170253296,293,0,,0.260089825594,-0.205213742087,-0.106895348119,-0.937450791899,0.0,0.0,0.0,0.0,0.0,0.0,0.0,0.0,0.0,-0.000125,0.000845,-0.000764,0.0,0.0,0.0,0.0,0.0,0.0,0.0,0.0,0.0,0.071,0.105,-9.804,0.0,0.0,0.0,0.0,0.0,0.0,0.0,0.0,0.0
1581180810230351804,294,0,,0.259982664271,-0.205815477104,-0.106545284039,-0.937388449956,0.0,0.0,0.0,0.0,0.0,0.0,0.0,0.0,0.0,0.000121,0.001195,-0.000521,0.0,0.0,0.0,0.0,0.0,0.0,0.0,0.0,0.0,0.078,0.099,-9.783,0.0,0.0,0.0,0.0,0.0,0.0,0.0,0.0,0.0
1581180810287659006,295,0,,0.259982664271,-0.205815477104,-0.106545284039,-0.937388449956,0.0,0.0,0.0,0.0,0.0,0.0,0.0,0.0,0.0,0.001042,-6.2e-05,-0.000849,0.0,0.0,0.0,0.0,0.0,0.0,0.0,0.0,0.0,0.093,0.089,-9.789,0.0,0.0,0.0,0.0,0.0,0.0,0.0,0.0,0.0
1581180810346822677,296,0,,0.259978077331,-0.206287141413,-0.106663932062,-0.937272543176,0.0,0.0,0.0,0.0,0.0,0.0,0.0,0.0,0.0,-0.000304,0.001423,-0.000527,0.0,0.0,0.0,0.0,0.0,0.0,0.0,0.0,0.0,0.106,0.077,-9.794,0.0,0.0,0.0,0.0,0.0,0.0,0.0,0.0,0.0
1581180810410431787,297,0,,0.259761348202,-0.207490180246,-0.105964054759,-0.937146459301,0.0,0.0,0.0,0.0,0.0,0.0,0.0,0.0,0.0,0.000346,0.000507,-0.000738,0.0,0.0,0.0,0.0,0.0,0.0,0.0,0.0,0.0,0.077,0.098,-9.795,0.0,0.0,0.0,0.0,0.0,0.0,0.0,0.0,0.0
1581180810466052532,298,0,,0.260229888942,-0.207437172285,-0.106067786599,-0.937016461489,0.0,0.0,0.0,0.0,0.0,0.0,0.0,0.0,0.0,0.00045,0.000968,-3.7e-05,0.0,0.0,0.0,0.0,0.0,0.0,0.0,0.0,0.0,0.077,0.097,-9.771,0.0,0.0,0.0,0.0,0.0,0.0,0.0,0.0,0.0
1581180810523601044,299,0,,0.26022457727,-0.207908617105,-0.106186706823,-0.936899973109,0.0,0.0,0.0,0.0,0.0,0.0,0.0,0.0,0.0,0.000725,0.001109,-0.000141,0.0,0.0,0.0,0.0,0.0,0.0,0.0,0.0,0.0,0.105,0.097,-9.75,0.0,0.0,0.0,0.0,0.0,0.0,0.0,0.0,0.0
1581180810583276789,300,0,,0.260374776217,-0.208717627928,-0.105004678492,-0.936811584683,0.0,0.0,0.0,0.0,0.0,0.0,0.0,0.0,0.0,4.6e-05,-0.001402,0.000293,0.0,0.0,0.0,0.0,0.0,0.0,0.0,0.0,0.0,0.079,0.078,-9.754,0.0,0.0,0.0,0.0,0.0,0.0,0.0,0.0,0.0
1581180810644164509,301,0,,0.260374776217,-0.208717627928,-0.105004678492,-0.936811584683,0.0,0.0,0.0,0.0,0.0,0.0,0.0,0.0,0.0,-0.000285,0.002379,-0.000634,0.0,0.0,0.0,0.0,0.0,0.0,0.0,0.0,0.0,0.107,0.088,-9.753,0.0,0.0,0.0,0.0,0.0,0.0,0.0,0.0,0.0
1581180810702035379,302,0,,0.259844783683,-0.209839167433,-0.102781893449,-0.936954691852,0.0,0.0,0.0,0.0,0.0,0.0,0.0,0.0,0.0,-0.001085,-0.001721,-0.000436,0.0,0.0,0.0,0.0,0.0,0.0,0.0,0.0,0.0,0.084,0.069,-9.82,0.0,0.0,0.0,0.0,0.0,0.0,0.0,0.0,0.0
1581180810759753840,303,0,,0.259488278154,-0.209289498965,-0.103026214696,-0.937149581555,0.0,0.0,0.0,0.0,0.0,0.0,0.0,0.0,0.0,0.00095,0.000481,-0.001646,0.0,0.0,0.0,0.0,0.0,0.0,0.0,0.0,0.0,0.072,0.08,-9.774,0.0,0.0,0.0,0.0,0.0,0.0,0.0,0.0,0.0
1581180810818547542,304,0,,0.259697437874,-0.209029906085,-0.103963312608,-0.937046086783,0.0,0.0,0.0,0.0,0.0,0.0,0.0,0.0,0.0,2.6e-05,-0.000275,-0.001163,0.0,0.0,0.0,0.0,0.0,0.0,0.0,0.0,0.0,0.089,0.084,-9.794,0.0,0.0,0.0,0.0,0.0,0.0,0.0,0.0,0.0
1581180810875515764,305,0,,0.260120590437,-0.2080387034,-0.105718243582,-0.936952949348,0.0,0.0,0.0,0.0,0.0,0.0,0.0,0.0,0.0,0.000302,-0.000663,-0.000114,0.0,0.0,0.0,0.0,0.0,0.0,0.0,0.0,0.0,0.061,0.093,-9.788,0.0,0.0,0.0,0.0,0.0,0.0,0.0,0.0,0.0
1581180810935371271,306,0,,0.26022457727,-0.207908617105,-0.106186706823,-0.936899973109,0.0,0.0,0.0,0.0,0.0,0.0,0.0,0.0,0.0,-0.000328,0.000184,-7.7e-05,0.0,0.0,0.0,0.0,0.0,0.0,0.0,0.0,0.0,0.078,0.084,-9.798,0.0,0.0,0.0,0.0,0.0,0.0,0.0,0.0,0.0
1581180810996348192,307,0,,0.260016538575,-0.208168737685,-0.105249753912,-0.937005691349,0.0,0.0,0.0,0.0,0.0,0.0,0.0,0.0,0.0,4.4e-05,-0.002435,-4.4e-05,0.0,0.0,0.0,0.0,0.0,0.0,0.0,0.0,0.0,0.076,0.084,-9.769,0.0,0.0,0.0,0.0,0.0,0.0,0.0,0.0,0.0
1581180811220931291,308,0,,0.254773817965,-0.211792082863,-0.0982012053593,-0.938398070427,0.0,0.0,0.0,0.0,0.0,0.0,0.0,0.0,0.0,0.000604,-0.000862,0.001075,0.0,0.0,0.0,0.0,0.0,0.0,0.0,0.0,0.0,0.075,0.113,-9.796,0.0,0.0,0.0,0.0,0.0,0.0,0.0,0.0,0.0
1581180811280320550,309,0,,0.25509121935,-0.211409684014,-0.0996086914608,-0.938249712977,0.0,0.0,0.0,0.0,0.0,0.0,0.0,0.0,0.0,-0.000786,0.002333,0.000845,0.0,0.0,0.0,0.0,0.0,0.0,0.0,0.0,0.0,0.08,0.106,-9.801,0.0,0.0,0.0,0.0,0.0,0.0,0.0,0.0,0.0
1581180811339430650,310,0,,0.255568474867,-0.210888194746,-0.0995964342066,-0.938238495407,0.0,0.0,0.0,0.0,0.0,0.0,0.0,0.0,0.0,0.000684,-0.000511,0.000395,0.0,0.0,0.0,0.0,0.0,0.0,0.0,0.0,0.0,0.076,0.088,-9.794,0.0,0.0,0.0,0.0,0.0,0.0,0.0,0.0,0.0
1581180811400708849,311,0,,0.255107364261,-0.210466196453,-0.0993732389945,-0.938482377151,0.0,0.0,0.0,0.0,0.0,0.0,0.0,0.0,0.0,0.001593,-0.002213,-0.000166,0.0,0.0,0.0,0.0,0.0,0.0,0.0,0.0,0.0,0.101,0.078,-9.818,0.0,0.0,0.0,0.0,0.0,0.0,0.0,0.0,0.0
1581180811459846669,312,0,,0.254840969079,-0.21073295016,-0.100323939994,-0.938393739994,0.0,0.0,0.0,0.0,0.0,0.0,0.0,0.0,0.0,0.000375,0.001064,-0.000196,0.0,0.0,0.0,0.0,0.0,0.0,0.0,0.0,0.0,0.081,0.094,-9.798,0.0,0.0,0.0,0.0,0.0,0.0,0.0,0.0,0.0
1581180811518114012,313,0,,0.255506303483,-0.211370759049,-0.10160244571,-0.937931700139,0.0,0.0,0.0,0.0,0.0,0.0,0.0,0.0,0.0,0.001426,0.001603,-0.000839,0.0,0.0,0.0,0.0,0.0,0.0,0.0,0.0,0.0,0.075,0.062,-9.802,0.0,0.0,0.0,0.0,0.0,0.0,0.0,0.0,0.0
1581180811574481681,314,0,,0.255717546454,-0.211115147103,-0.102540326452,-0.937829628744,0.0,0.0,0.0,0.0,0.0,0.0,0.0,0.0,0.0,0.000278,0.000592,0.000784,0.0,0.0,0.0,0.0,0.0,0.0,0.0,0.0,0.0,0.071,0.123,-9.808,0.0,0.0,0.0,0.0,0.0,0.0,0.0,0.0,0.0
1581180811633209846,315,0,,0.256278585385,-0.211878835763,-0.103349663037,-0.937415325658,0.0,0.0,0.0,0.0,0.0,0.0,0.0,0.0,0.0,0.001008,0.002567,0.000179,0.0,0.0,0.0,0.0,0.0,0.0,0.0,0.0,0.0,0.067,0.079,-9.798,0.0,0.0,0.0,0.0,0.0,0.0,0.0,0.0,0.0
1581180811700320679,316,0,,0.256179553633,-0.211535426001,-0.102763419685,-0.937584385227,0.0,0.0,0.0,0.0,0.0,0.0,0.0,0.0,0.0,0.000117,-0.00136,0.000803,0.0,0.0,0.0,0.0,0.0,0.0,0.0,0.0,0.0,0.098,0.094,-9.796,0.0,0.0,0.0,0.0,0.0,0.0,0.0,0.0,0.0
1581180811771970311,317,0,,0.256285289319,-0.211407309787,-0.103232199013,-0.937532886321,0.0,0.0,0.0,0.0,0.0,0.0,0.0,0.0,0.0,-0.000768,0.000102,-0.001898,0.0,0.0,0.0,0.0,0.0,0.0,0.0,0.0,0.0,0.082,0.105,-9.787,0.0,0.0,0.0,0.0,0.0,0.0,0.0,0.0,0.0
1581180811833184803,318,0,,0.256271817381,-0.212350308769,-0.103467101224,-0.937297530641,0.0,0.0,0.0,0.0,0.0,0.0,0.0,0.0,0.0,5.2e-05,0.0002,0.001244,0.0,0.0,0.0,0.0,0.0,0.0,0.0,0.0,0.0,0.084,0.069,-9.789,0.0,0.0,0.0,0.0,0.0,0.0,0.0,0.0,0.0
1581180811890688271,319,0,,0.256165610197,-0.212478418128,-0.102998439545,-0.937349147028,0.0,0.0,0.0,0.0,0.0,0.0,0.0,0.0,0.0,-0.000348,-0.00065,-0.000472,0.0,0.0,0.0,0.0,0.0,0.0,0.0,0.0,0.0,0.082,0.09,-9.81,0.0,0.0,0.0,0.0,0.0,0.0,0.0,0.0,0.0
1581180811949101031,320,0,,0.256989189919,-0.212975133414,-0.102860308935,-0.937026096572,0.0,0.0,0.0,0.0,0.0,0.0,0.0,0.0,0.0,1.2e-05,0.000446,0.00089,0.0,0.0,0.0,0.0,0.0,0.0,0.0,0.0,0.0,0.059,0.078,-9.761,0.0,0.0,0.0,0.0,0.0,0.0,0.0,0.0,0.0
1581180812009049467,321,0,,0.257215872415,-0.211775380178,-0.103561490163,-0.937158578408,0.0,0.0,0.0,0.0,0.0,0.0,0.0,0.0,0.0,0.00017,0.000178,0.001107,0.0,0.0,0.0,0.0,0.0,0.0,0.0,0.0,0.0,0.064,0.082,-9.794,0.0,0.0,0.0,0.0,0.0,0.0,0.0,0.0,0.0
1581180812067497011,322,0,,0.257252570034,-0.212709799497,-0.101911479709,-0.937117765658,0.0,0.0,0.0,0.0,0.0,0.0,0.0,0.0,0.0,-0.000324,0.000954,0.000592,0.0,0.0,0.0,0.0,0.0,0.0,0.0,0.0,0.0,0.079,0.091,-9.753,0.0,0.0,0.0,0.0,0.0,0.0,0.0,0.0,0.0
1581180812128970433,323,0,,0.256768129445,-0.213703250193,-0.102041325574,-0.937010467622,0.0,0.0,0.0,0.0,0.0,0.0,0.0,0.0,0.0,-0.000578,0.001421,-0.000956,0.0,0.0,0.0,0.0,0.0,0.0,0.0,0.0,0.0,0.097,0.068,-9.784,0.0,0.0,0.0,0.0,0.0,0.0,0.0,0.0,0.0
1581180812187602005,324,0,,0.256719568288,-0.21371247244,-0.10392612969,-0.936814497085,0.0,0.0,0.0,0.0,0.0,0.0,0.0,0.0,0.0,-0.000277,0.000385,-0.000554,0.0,0.0,0.0,0.0,0.0,0.0,0.0,0.0,0.0,0.078,0.086,-9.808,0.0,0.0,0.0,0.0,0.0,0.0,0.0,0.0,0.0
1581180812247733473,325,0,,0.256839895866,-0.212641516467,-0.104159424101,-0.93699928908,0.0,0.0,0.0,0.0,0.0,0.0,0.0,0.0,0.0,-0.000214,-0.001156,-0.000575,0.0,0.0,0.0,0.0,0.0,0.0,0.0,0.0,0.0,0.086,0.067,-9.811,0.0,0.0,0.0,0.0,0.0,0.0,0.0,0.0,0.0
1581180812308909634,326,0,,0.256158542416,-0.212949834571,-0.103115910865,-0.937231176407,0.0,0.0,0.0,0.0,0.0,0.0,0.0,0.0,0.0,-9.6e-05,0.00062,0.000249,0.0,0.0,0.0,0.0,0.0,0.0,0.0,0.0,0.0,0.064,0.106,-9.8,0.0,0.0,0.0,0.0,0.0,0.0,0.0,0.0,0.0
1581180812367042925,327,0,,0.256052035484,-0.213077887218,-0.102647282407,-0.937282617207,0.0,0.0,0.0,0.0,0.0,0.0,0.0,0.0,0.0,-5.1e-05,0.000256,-0.00054,0.0,0.0,0.0,0.0,0.0,0.0,0.0,0.0,0.0,0.089,0.109,-9.785,0.0,0.0,0.0,0.0,0.0,0.0,0.0,0.0,0.0
1581180812425127399,328,0,,0.257102831105,-0.212375313467,-0.103210866429,-0.937092512786,0.0,0.0,0.0,0.0,0.0,0.0,0.0,0.0,0.0,-0.00081,-0.000953,-0.000811,0.0,0.0,0.0,0.0,0.0,0.0,0.0,0.0,0.0,0.072,0.083,-9.771,0.0,0.0,0.0,0.0,0.0,0.0,0.0,0.0,0.0
1581180812481005946,329,0,,0.257457670824,-0.21292367664,-0.10296678364,-0.936897484855,0.0,0.0,0.0,0.0,0.0,0.0,0.0,0.0,0.0,0.000846,0.001453,-2.2e-05,0.0,0.0,0.0,0.0,0.0,0.0,0.0,0.0,0.0,0.087,0.078,-9.801,0.0,0.0,0.0,0.0,0.0,0.0,0.0,0.0,0.0
1581180812539730941,330,0,,0.257244618454,-0.213181027806,-0.102029834828,-0.936999983172,0.0,0.0,0.0,0.0,0.0,0.0,0.0,0.0,0.0,0.000497,-0.001083,0.00031,0.0,0.0,0.0,0.0,0.0,0.0,0.0,0.0,0.0,0.079,0.07,-9.801,0.0,0.0,0.0,0.0,0.0,0.0,0.0,0.0,0.0
1581180812596669522,331,0,,0.256661245728,-0.21383160754,-0.101572807605,-0.937061371156,0.0,0.0,0.0,0.0,0.0,0.0,0.0,0.0,0.0,0.000725,7e-06,-0.000249,0.0,0.0,0.0,0.0,0.0,0.0,0.0,0.0,0.0,0.06,0.089,-9.784,0.0,0.0,0.0,0.0,0.0,0.0,0.0,0.0,0.0
1581180812655764832,332,0,,0.256184485415,-0.214353602841,-0.101583771118,-0.937071384595,0.0,0.0,0.0,0.0,0.0,0.0,0.0,0.0,0.0,-0.000982,-2e-05,-0.000976,0.0,0.0,0.0,0.0,0.0,0.0,0.0,0.0,0.0,0.069,0.077,-9.795,0.0,0.0,0.0,0.0,0.0,0.0,0.0,0.0,0.0
1581180812712076841,333,0,,0.255961270968,-0.215080853651,-0.100764634086,-0.937054183425,0.0,0.0,0.0,0.0,0.0,0.0,0.0,0.0,0.0,-0.000561,0.002293,-0.001081,0.0,0.0,0.0,0.0,0.0,0.0,0.0,0.0,0.0,0.089,0.09,-9.798,0.0,0.0,0.0,0.0,0.0,0.0,0.0,0.0,0.0
1581180812773747813,334,0,,0.256195889153,-0.216228816005,-0.100171788193,-0.93678939915,0.0,0.0,0.0,0.0,0.0,0.0,0.0,0.0,0.0,0.001268,0.001278,0.000153,0.0,0.0,0.0,0.0,0.0,0.0,0.0,0.0,0.0,0.049,0.064,-9.806,0.0,0.0,0.0,0.0,0.0,0.0,0.0,0.0,0.0
1581180812832316393,335,0,,0.256403005574,-0.21644346491,-0.101226672167,-0.936569744372,0.0,0.0,0.0,0.0,0.0,0.0,0.0,0.0,0.0,0.000463,0.000429,0.001013,0.0,0.0,0.0,0.0,0.0,0.0,0.0,0.0,0.0,0.097,0.085,-9.826,0.0,0.0,0.0,0.0,0.0,0.0,0.0,0.0,0.0
1581180812892725712,336,0,,0.256285467986,-0.217042533524,-0.100876553782,-0.936501050954,0.0,0.0,0.0,0.0,0.0,0.0,0.0,0.0,0.0,-0.000229,0.000452,-0.000863,0.0,0.0,0.0,0.0,0.0,0.0,0.0,0.0,0.0,0.08,0.088,-9.768,0.0,0.0,0.0,0.0,0.0,0.0,0.0,0.0,0.0
1581180812950717096,337,0,,0.256602101733,-0.217128714697,-0.102399165978,-0.936229081714,0.0,0.0,0.0,0.0,0.0,0.0,0.0,0.0,0.0,0.00011,-0.000667,-4.8e-05,0.0,0.0,0.0,0.0,0.0,0.0,0.0,0.0,0.0,0.08,0.1,-9.8,0.0,0.0,0.0,0.0,0.0,0.0,0.0,0.0,0.0
1581180813009518713,338,0,,0.257503824725,-0.216562913794,-0.104379712595,-0.935893776141,0.0,0.0,0.0,0.0,0.0,0.0,0.0,0.0,0.0,0.000514,0.000258,0.001137,0.0,0.0,0.0,0.0,0.0,0.0,0.0,0.0,0.0,0.069,0.106,-9.799,0.0,0.0,0.0,0.0,0.0,0.0,0.0,0.0,0.0
1581180813068532801,339,0,,0.258079962503,-0.216381683942,-0.104955850373,-0.935712546288,0.0,0.0,0.0,0.0,0.0,0.0,0.0,0.0,0.0,-2.7e-05,0.000124,-0.000252,0.0,0.0,0.0,0.0,0.0,0.0,0.0,0.0,0.0,0.097,0.076,-9.802,0.0,0.0,0.0,0.0,0.0,0.0,0.0,0.0,0.0
1581180813127739757,340,0,,0.258289036953,-0.216594204775,-0.106009509943,-0.935486882671,0.0,0.0,0.0,0.0,0.0,0.0,0.0,0.0,0.0,-0.00094,-0.000986,0.000981,0.0,0.0,0.0,0.0,0.0,0.0,0.0,0.0,0.0,0.106,0.083,-9.801,0.0,0.0,0.0,0.0,0.0,0.0,0.0,0.0,0.0
1581180813187812578,341,0,,0.258613637563,-0.216206527696,-0.10741262048,-0.935326816043,0.0,0.0,0.0,0.0,0.0,0.0,0.0,0.0,0.0,-0.001057,-0.000433,-0.001323,0.0,0.0,0.0,0.0,0.0,0.0,0.0,0.0,0.0,0.1,0.088,-9.789,0.0,0.0,0.0,0.0,0.0,0.0,0.0,0.0,0.0
1581180813252212890,342,0,,0.258498729905,-0.216806469286,-0.107062796286,-0.935259813723,0.0,0.0,0.0,0.0,0.0,0.0,0.0,0.0,0.0,-0.00011,0.000316,0.000385,0.0,0.0,0.0,0.0,0.0,0.0,0.0,0.0,0.0,0.083,0.083,-9.771,0.0,0.0,0.0,0.0,0.0,0.0,0.0,0.0,0.0
1581180813313636390,343,0,,0.258139465434,-0.216730930945,-0.107422060758,-0.935335352064,0.0,0.0,0.0,0.0,0.0,0.0,0.0,0.0,0.0,0.00065,0.002251,-5.7e-05,0.0,0.0,0.0,0.0,0.0,0.0,0.0,0.0,0.0,0.056,0.107,-9.816,0.0,0.0,0.0,0.0,0.0,0.0,0.0,0.0,0.0
1581180813371621472,344,0,,0.259045533103,-0.215688868353,-0.109283058039,-0.935110120293,0.0,0.0,0.0,0.0,0.0,0.0,0.0,0.0,0.0,-0.000492,-0.000335,0.00035,0.0,0.0,0.0,0.0,0.0,0.0,0.0,0.0,0.0,0.077,0.099,-9.805,0.0,0.0,0.0,0.0,0.0,0.0,0.0,0.0,0.0
1581180813430224545,345,0,,0.260099037714,-0.214508174251,-0.109730099506,-0.935036918534,0.0,0.0,0.0,0.0,0.0,0.0,0.0,0.0,0.0,-0.000269,-0.00157,0.000222,0.0,0.0,0.0,0.0,0.0,0.0,0.0,0.0,0.0,0.081,0.085,-9.823,0.0,0.0,0.0,0.0,0.0,0.0,0.0,0.0,0.0
1581180813487567704,346,0,,0.25973873581,-0.214433169926,-0.11009040141,-0.935111922859,0.0,0.0,0.0,0.0,0.0,0.0,0.0,0.0,0.0,-0.00029,-0.000777,0.000975,0.0,0.0,0.0,0.0,0.0,0.0,0.0,0.0,0.0,0.081,0.059,-9.807,0.0,0.0,0.0,0.0,0.0,0.0,0.0,0.0,0.0
1581180813546414717,347,0,,0.259378359082,-0.214358525941,-0.110450778139,-0.935186566844,0.0,0.0,0.0,0.0,0.0,0.0,0.0,0.0,0.0,0.00095,0.000565,-0.0001,0.0,0.0,0.0,0.0,0.0,0.0,0.0,0.0,0.0,0.076,0.103,-9.784,0.0,0.0,0.0,0.0,0.0,0.0,0.0,0.0,0.0
1581180813604695067,348,0,,0.259276077669,-0.21401734448,-0.109865658663,-0.935361977449,0.0,0.0,0.0,0.0,0.0,0.0,0.0,0.0,0.0,0.000356,0.000684,0.000213,0.0,0.0,0.0,0.0,0.0,0.0,0.0,0.0,0.0,0.077,0.086,-9.769,0.0,0.0,0.0,0.0,0.0,0.0,0.0,0.0,0.0
1581180813663010442,349,0,,0.259489965339,-0.213757961436,-0.110800965552,-0.935251644128,0.0,0.0,0.0,0.0,0.0,0.0,0.0,0.0,0.0,0.000408,0.000238,-0.001064,0.0,0.0,0.0,0.0,0.0,0.0,0.0,0.0,0.0,0.061,0.097,-9.781,0.0,0.0,0.0,0.0,0.0,0.0,0.0,0.0,0.0
1581180813721111233,350,0,,0.259535030326,-0.213751188247,-0.108919471232,-0.935461675508,0.0,0.0,0.0,0.0,0.0,0.0,0.0,0.0,0.0,-0.000227,-0.000202,-0.000276,0.0,0.0,0.0,0.0,0.0,0.0,0.0,0.0,0.0,0.07,0.092,-9.791,0.0,0.0,0.0,0.0,0.0,0.0,0.0,0.0,0.0
1581180813783506510,351,0,,0.259214111687,-0.214140250176,-0.107516156711,-0.935624002259,0.0,0.0,0.0,0.0,0.0,0.0,0.0,0.0,0.0,8.2e-05,0.002026,-0.000354,0.0,0.0,0.0,0.0,0.0,0.0,0.0,0.0,0.0,0.075,0.069,-9.775,0.0,0.0,0.0,0.0,0.0,0.0,0.0,0.0,0.0
1581180813845380843,352,0,,0.259061930722,-0.214276513505,-0.108930241909,-0.935471375408,0.0,0.0,0.0,0.0,0.0,0.0,0.0,0.0,0.0,0.000132,0.001222,0.000526,0.0,0.0,0.0,0.0,0.0,0.0,0.0,0.0,0.0,0.099,0.089,-9.794,0.0,0.0,0.0,0.0,0.0,0.0,0.0,0.0,0.0
1581180813907731783,353,0,,0.259524172806,-0.214692801402,-0.109155234598,-0.935221545686,0.0,0.0,0.0,0.0,0.0,0.0,0.0,0.0,0.0,0.001178,0.000246,-0.000299,0.0,0.0,0.0,0.0,0.0,0.0,0.0,0.0,0.0,0.078,0.102,-9.813,0.0,0.0,0.0,0.0,0.0,0.0,0.0,0.0,0.0
1581180813964442412,354,0,,0.260099037714,-0.214508174251,-0.109730099506,-0.935036918534,0.0,0.0,0.0,0.0,0.0,0.0,0.0,0.0,0.0,0.000457,-0.00143,0.001373,0.0,0.0,0.0,0.0,0.0,0.0,0.0,0.0,0.0,0.063,0.086,-9.791,0.0,0.0,0.0,0.0,0.0,0.0,0.0,0.0,0.0
1581180814067491225,355,0,,0.261723195189,-0.203126478871,-0.114391453826,-0.93656563997,0.0,0.0,0.0,0.0,0.0,0.0,0.0,0.0,0.0,-0.000857,-0.000544,-0.000892,0.0,0.0,0.0,0.0,0.0,0.0,0.0,0.0,0.0,0.063,0.105,-9.797,0.0,0.0,0.0,0.0,0.0,0.0,0.0,0.0,0.0
1581180814124338904,356,0,,0.261926190773,-0.202864654157,-0.115327962114,-0.936450780253,0.0,0.0,0.0,0.0,0.0,0.0,0.0,0.0,0.0,-0.001043,0.000196,-0.000585,0.0,0.0,0.0,0.0,0.0,0.0,0.0,0.0,0.0,0.087,0.098,-9.819,0.0,0.0,0.0,0.0,0.0,0.0,0.0,0.0,0.0
1581180814181011605,357,0,,0.262394383403,-0.20280696482,-0.115429380021,-0.936319700106,0.0,0.0,0.0,0.0,0.0,0.0,0.0,0.0,0.0,-0.001187,0.004224,-0.00053,0.0,0.0,0.0,0.0,0.0,0.0,0.0,0.0,0.0,0.09,0.083,-9.775,0.0,0.0,0.0,0.0,0.0,0.0,0.0,0.0,0.0
1581180814242521673,358,0,,0.262191950311,-0.202597528734,-0.114375051117,-0.936551103905,0.0,0.0,0.0,0.0,0.0,0.0,0.0,0.0,0.0,-0.000514,-0.000497,-0.000402,0.0,0.0,0.0,0.0,0.0,0.0,0.0,0.0,0.0,0.082,0.075,-9.791,0.0,0.0,0.0,0.0,0.0,0.0,0.0,0.0,0.0
1581180814299331371,359,0,,0.262558890083,-0.202671620659,-0.114008111344,-0.936477011979,0.0,0.0,0.0,0.0,0.0,0.0,0.0,0.0,0.0,0.000544,-0.000335,0.000167,0.0,0.0,0.0,0.0,0.0,0.0,0.0,0.0,0.0,0.084,0.088,-9.798,0.0,0.0,0.0,0.0,0.0,0.0,0.0,0.0,0.0
1581180814361919312,360,0,,0.262660193069,-0.202540315886,-0.11447633558,-0.936419890866,0.0,0.0,0.0,0.0,0.0,0.0,0.0,0.0,0.0,-0.00057,0.000193,-0.000155,0.0,0.0,0.0,0.0,0.0,0.0,0.0,0.0,0.0,0.069,0.103,-9.807,0.0,0.0,0.0,0.0,0.0,0.0,0.0,0.0,0.0
1581180814421811144,361,0,,0.262558090991,-0.203143290306,-0.114126357046,-0.936360628757,0.0,0.0,0.0,0.0,0.0,0.0,0.0,0.0,0.0,-0.000151,0.000661,-0.000433,0.0,0.0,0.0,0.0,0.0,0.0,0.0,0.0,0.0,0.081,0.078,-9.786,0.0,0.0,0.0,0.0,0.0,0.0,0.0,0.0,0.0
1581180814479919570,362,0,,0.263330356049,-0.203162994603,-0.115750407143,-0.935940043194,0.0,0.0,0.0,0.0,0.0,0.0,0.0,0.0,0.0,-0.000198,0.001486,0.001398,0.0,0.0,0.0,0.0,0.0,0.0,0.0,0.0,0.0,0.057,0.102,-9.803,0.0,0.0,0.0,0.0,0.0,0.0,0.0,0.0,0.0
1581180814540219118,363,0,,0.263330356049,-0.203162994603,-0.115750407143,-0.935940043194,0.0,0.0,0.0,0.0,0.0,0.0,0.0,0.0,0.0,-0.000548,-0.002023,-0.000318,0.0,0.0,0.0,0.0,0.0,0.0,0.0,0.0,0.0,0.073,0.121,-9.809,0.0,0.0,0.0,0.0,0.0,0.0,0.0,0.0,0.0
1581180814596020725,364,0,,0.264102653889,-0.202709168222,-0.117255555699,-0.935633430348,0.0,0.0,0.0,0.0,0.0,0.0,0.0,0.0,0.0,-0.000187,-0.00018,-0.000279,0.0,0.0,0.0,0.0,0.0,0.0,0.0,0.0,0.0,0.085,0.081,-9.801,0.0,0.0,0.0,0.0,0.0,0.0,0.0,0.0,0.0
1581180814655994062,365,0,,0.263431904626,-0.203031304035,-0.116218362676,-0.935882051,0.0,0.0,0.0,0.0,0.0,0.0,0.0,0.0,0.0,-0.000419,0.001,0.000447,0.0,0.0,0.0,0.0,0.0,0.0,0.0,0.0,0.0,0.072,0.084,-9.818,0.0,0.0,0.0,0.0,0.0,0.0,0.0,0.0,0.0
1581180814712187664,366,0,,0.262760709855,-0.203352250178,-0.115180760949,-0.936129298768,0.0,0.0,0.0,0.0,0.0,0.0,0.0,0.0,0.0,0.000599,0.000981,0.001096,0.0,0.0,0.0,0.0,0.0,0.0,0.0,0.0,0.0,0.075,0.069,-9.784,0.0,0.0,0.0,0.0,0.0,0.0,0.0,0.0,0.0
1581180814773017517,367,0,,0.263330074516,-0.20363450436,-0.115868656111,-0.935823014795,0.0,0.0,0.0,0.0,0.0,0.0,0.0,0.0,0.0,-0.001012,0.001216,0.000185,0.0,0.0,0.0,0.0,0.0,0.0,0.0,0.0,0.0,0.079,0.087,-9.794,0.0,0.0,0.0,0.0,0.0,0.0,0.0,0.0,0.0
1581180814829514802,368,0,,0.262658306302,-0.203955173472,-0.114830812089,-0.936069861677,0.0,0.0,0.0,0.0,0.0,0.0,0.0,0.0,0.0,0.000235,-0.000419,-0.00109,0.0,0.0,0.0,0.0,0.0,0.0,0.0,0.0,0.0,0.076,0.094,-9.824,0.0,0.0,0.0,0.0,0.0,0.0,0.0,0.0,0.0
1581180814886720507,369,0,,0.262963771765,-0.204503941672,-0.116470609304,-0.935661685519,0.0,0.0,0.0,0.0,0.0,0.0,0.0,0.0,0.0,-6.4e-05,0.001193,-0.002325,0.0,0.0,0.0,0.0,0.0,0.0,0.0,0.0,0.0,0.083,0.054,-9.779,0.0,0.0,0.0,0.0,0.0,0.0,0.0,0.0,0.0
1581180814946943259,370,0,,0.263065990861,-0.204372434229,-0.116938425569,-0.935603333259,0.0,0.0,0.0,0.0,0.0,0.0,0.0,0.0,0.0,-0.002009,-0.000863,-0.000513,0.0,0.0,0.0,0.0,0.0,0.0,0.0,0.0,0.0,0.089,0.092,-9.809,0.0,0.0,0.0,0.0,0.0,0.0,0.0,0.0,0.0
1581180815004655345,371,0,,0.263329313953,-0.204577371031,-0.116105067117,-0.93558825616,0.0,0.0,0.0,0.0,0.0,0.0,0.0,0.0,0.0,-0.000635,0.000336,0.000992,0.0,0.0,0.0,0.0,0.0,0.0,0.0,0.0,0.0,0.055,0.113,-9.773,0.0,0.0,0.0,0.0,0.0,0.0,0.0,0.0,0.0
1581180815060358465,372,0,,0.263330074516,-0.20363450436,-0.115868656111,-0.935823014795,0.0,0.0,0.0,0.0,0.0,0.0,0.0,0.0,0.0,0.000946,0.00176,-0.00111,0.0,0.0,0.0,0.0,0.0,0.0,0.0,0.0,0.0,0.068,0.086,-9.778,0.0,0.0,0.0,0.0,0.0,0.0,0.0,0.0,0.0
1581180815119276590,373,0,,0.264103322121,-0.203652018534,-0.117492144421,-0.935398784793,0.0,0.0,0.0,0.0,0.0,0.0,0.0,0.0,0.0,-0.00063,0.002486,-0.000138,0.0,0.0,0.0,0.0,0.0,0.0,0.0,0.0,0.0,0.089,0.078,-9.763,0.0,0.0,0.0,0.0,0.0,0.0,0.0,0.0,0.0
1581180815179717628,374,0,,0.264001462505,-0.204255393637,-0.1171427395,-0.93533979951,0.0,0.0,0.0,0.0,0.0,0.0,0.0,0.0,0.0,0.000762,-0.000224,-0.000364,0.0,0.0,0.0,0.0,0.0,0.0,0.0,0.0,0.0,0.063,0.078,-9.782,0.0,0.0,0.0,0.0,0.0,0.0,0.0,0.0,0.0
1581180815239901540,375,0,,0.264408502918,-0.203255634591,-0.118895109893,-0.935221494319,0.0,0.0,0.0,0.0,0.0,0.0,0.0,0.0,0.0,-0.000305,0.000443,0.001466,0.0,0.0,0.0,0.0,0.0,0.0,0.0,0.0,0.0,0.08,0.079,-9.8,0.0,0.0,0.0,0.0,0.0,0.0,0.0,0.0,0.0
1581180815298842587,376,0,,0.264672273975,-0.20298959569,-0.117943117689,-0.935325201425,0.0,0.0,0.0,0.0,0.0,0.0,0.0,0.0,0.0,-0.000893,0.000956,-0.000773,0.0,0.0,0.0,0.0,0.0,0.0,0.0,0.0,0.0,0.074,0.099,-9.769,0.0,0.0,0.0,0.0,0.0,0.0,0.0,0.0,0.0
1581180815356053410,377,0,,0.264103021018,-0.203180618776,-0.117373864732,-0.93551622451,0.0,0.0,0.0,0.0,0.0,0.0,0.0,0.0,0.0,-9.8e-05,-0.001404,3e-06,0.0,0.0,0.0,0.0,0.0,0.0,0.0,0.0,0.0,0.074,0.075,-9.798,0.0,0.0,0.0,0.0,0.0,0.0,0.0,0.0,0.0
1581180815415909220,378,0,,0.264001266296,-0.202841194205,-0.116787724346,-0.93569194117,0.0,0.0,0.0,0.0,0.0,0.0,0.0,0.0,0.0,0.000681,-0.001115,-6.2e-05,0.0,0.0,0.0,0.0,0.0,0.0,0.0,0.0,0.0,0.051,0.097,-9.801,0.0,0.0,0.0,0.0,0.0,0.0,0.0,0.0,0.0
1581180815473021331,379,0,,0.264733969341,-0.202989140499,-0.116055021301,-0.935543994875,0.0,0.0,0.0,0.0,0.0,0.0,0.0,0.0,0.0,-8.3e-05,-0.001166,-0.000732,0.0,0.0,0.0,0.0,0.0,0.0,0.0,0.0,0.0,0.074,0.083,-9.781,0.0,0.0,0.0,0.0,0.0,0.0,0.0,0.0,0.0
1581180815531147413,380,0,,0.264266763194,-0.202104207922,-0.115715984455,-0.935909599242,0.0,0.0,0.0,0.0,0.0,0.0,0.0,0.0,0.0,0.000222,-0.000108,-0.001247,0.0,0.0,0.0,0.0,0.0,0.0,0.0,0.0,0.0,0.074,0.08,-9.789,0.0,0.0,0.0,0.0,0.0,0.0,0.0,0.0,0.0
1581180815591786542,381,0,,0.264000805488,-0.201898140836,-0.116550901543,-0.93592553271,0.0,0.0,0.0,0.0,0.0,0.0,0.0,0.0,0.0,-0.000569,0.000454,0.000606,0.0,0.0,0.0,0.0,0.0,0.0,0.0,0.0,0.0,0.076,0.088,-9.761,0.0,0.0,0.0,0.0,0.0,0.0,0.0,0.0,0.0
1581180815649856753,382,0,,0.264669700082,-0.201103727878,-0.117468996569,-0.935792859204,0.0,0.0,0.0,0.0,0.0,0.0,0.0,0.0,0.0,0.000325,-0.000571,0.000786,0.0,0.0,0.0,0.0,0.0,0.0,0.0,0.0,0.0,0.063,0.088,-9.795,0.0,0.0,0.0,0.0,0.0,0.0,0.0,0.0,0.0
1581180815709186422,383,0,,0.264569115139,-0.201236037584,-0.117001085475,-0.935851476726,0.0,0.0,0.0,0.0,0.0,0.0,0.0,0.0,0.0,-0.001733,-0.001225,-0.000226,0.0,0.0,0.0,0.0,0.0,0.0,0.0,0.0,0.0,0.069,0.091,-9.789,0.0,0.0,0.0,0.0,0.0,0.0,0.0,0.0,0.0
1581180815767047304,384,0,,0.264669700082,-0.201103727878,-0.117468996569,-0.935792859204,0.0,0.0,0.0,0.0,0.0,0.0,0.0,0.0,0.0,-0.000145,3.1e-05,-1.2e-05,0.0,0.0,0.0,0.0,0.0,0.0,0.0,0.0,0.0,0.083,0.098,-9.772,0.0,0.0,0.0,0.0,0.0,0.0,0.0,0.0,0.0
1581180815824838691,385,0,,0.26483569779,-0.201442448264,-0.116165911394,-0.935835709002,0.0,0.0,0.0,0.0,0.0,0.0,0.0,0.0,0.0,-0.000357,0.000292,0.000414,0.0,0.0,0.0,0.0,0.0,0.0,0.0,0.0,0.0,0.067,0.077,-9.766,0.0,0.0,0.0,0.0,0.0,0.0,0.0,0.0,0.0
1581180815886337337,386,0,,0.265036492826,-0.200705977996,-0.11698279116,-0.935835345795,0.0,0.0,0.0,0.0,0.0,0.0,0.0,0.0,0.0,0.000102,-0.001289,0.000463,0.0,0.0,0.0,0.0,0.0,0.0,0.0,0.0,0.0,0.108,0.083,-9.774,0.0,0.0,0.0,0.0,0.0,0.0,0.0,0.0,0.0
1581180815946108048,387,0,,0.265604667888,-0.200514684251,-0.117550966223,-0.93564405205,0.0,0.0,0.0,0.0,0.0,0.0,0.0,0.0,0.0,-0.000659,0.000631,-0.000597,0.0,0.0,0.0,0.0,0.0,0.0,0.0,0.0,0.0,0.09,0.081,-9.829,0.0,0.0,0.0,0.0,0.0,0.0,0.0,0.0,0.0
1581180816003183861,388,0,,0.2653396317,-0.201251212598,-0.11862382875,-0.935425687337,0.0,0.0,0.0,0.0,0.0,0.0,0.0,0.0,0.0,-0.000666,0.000933,-3.5e-05,0.0,0.0,0.0,0.0,0.0,0.0,0.0,0.0,0.0,0.104,0.081,-9.764,0.0,0.0,0.0,0.0,0.0,0.0,0.0,0.0,0.0
1581180816062565772,389,0,,0.266108800024,-0.200792938371,-0.120127244784,-0.935113761802,0.0,0.0,0.0,0.0,0.0,0.0,0.0,0.0,0.0,-0.000213,-3.3e-05,-6.4e-05,0.0,0.0,0.0,0.0,0.0,0.0,0.0,0.0,0.0,0.061,0.119,-9.778,0.0,0.0,0.0,0.0,0.0,0.0,0.0,0.0,0.0
1581180816121473174,390,0,,0.265441549442,-0.20158994911,-0.119210132155,-0.935249282619,0.0,0.0,0.0,0.0,0.0,0.0,0.0,0.0,0.0,0.000488,0.000311,-0.000932,0.0,0.0,0.0,0.0,0.0,0.0,0.0,0.0,0.0,0.103,0.099,-9.751,0.0,0.0,0.0,0.0,0.0,0.0,0.0,0.0,0.0
1581180816181604055,391,0,,0.266008370295,-0.200925967666,-0.119659672906,-0.935173708532,0.0,0.0,0.0,0.0,0.0,0.0,0.0,0.0,0.0,-0.000756,-0.00099,0.000155,0.0,0.0,0.0,0.0,0.0,0.0,0.0,0.0,0.0,0.105,0.075,-9.806,0.0,0.0,0.0,0.0,0.0,0.0,0.0,0.0,0.0
1581180816240202914,392,0,,0.2653396317,-0.201251212598,-0.11862382875,-0.935425687337,0.0,0.0,0.0,0.0,0.0,0.0,0.0,0.0,0.0,-0.00045,0.000655,0.000146,0.0,0.0,0.0,0.0,0.0,0.0,0.0,0.0,0.0,0.089,0.084,-9.766,0.0,0.0,0.0,0.0,0.0,0.0,0.0,0.0,0.0
1581180816300771373,393,0,,0.265073063739,-0.201045526856,-0.119458687142,-0.935439249271,0.0,0.0,0.0,0.0,0.0,0.0,0.0,0.0,0.0,0.001856,0.000257,-9.4e-05,0.0,0.0,0.0,0.0,0.0,0.0,0.0,0.0,0.0,0.077,0.074,-9.758,0.0,0.0,0.0,0.0,0.0,0.0,0.0,0.0,0.0
1581180816359943790,394,0,,0.265074683278,-0.201517016828,-0.119576998319,-0.935322214901,0.0,0.0,0.0,0.0,0.0,0.0,0.0,0.0,0.0,0.00141,-9.7e-05,0.000109,0.0,0.0,0.0,0.0,0.0,0.0,0.0,0.0,0.0,0.064,0.083,-9.786,0.0,0.0,0.0,0.0,0.0,0.0,0.0,0.0,0.0
1581180816419641471,395,0,,0.264874115589,-0.202253431619,-0.118760014962,-0.935324174357,0.0,0.0,0.0,0.0,0.0,0.0,0.0,0.0,0.0,-0.001026,-0.001236,2.4e-05,0.0,0.0,0.0,0.0,0.0,0.0,0.0,0.0,0.0,0.091,0.107,-9.804,0.0,0.0,0.0,0.0,0.0,0.0,0.0,0.0,0.0
1581180816479862862,396,0,,0.265543805869,-0.201928583535,-0.119796258863,-0.935072291686,0.0,0.0,0.0,0.0,0.0,0.0,0.0,0.0,0.0,0.000591,-1.6e-05,0.000983,0.0,0.0,0.0,0.0,0.0,0.0,0.0,0.0,0.0,0.054,0.075,-9.787,0.0,0.0,0.0,0.0,0.0,0.0,0.0,0.0,0.0
1581180816542254772,397,0,,0.265369481133,-0.199704566842,-0.120625349499,-0.935492730877,0.0,0.0,0.0,0.0,0.0,0.0,0.0,0.0,0.0,0.000182,-0.000701,-0.00028,0.0,0.0,0.0,0.0,0.0,0.0,0.0,0.0,0.0,0.077,0.082,-9.807,0.0,0.0,0.0,0.0,0.0,0.0,0.0,0.0,0.0
1581180816600898414,398,0,,0.265735107211,-0.199305543695,-0.120138971571,-0.935536627053,0.0,0.0,0.0,0.0,0.0,0.0,0.0,0.0,0.0,0.000128,-0.000716,0.000413,0.0,0.0,0.0,0.0,0.0,0.0,0.0,0.0,0.0,0.069,0.08,-9.794,0.0,0.0,0.0,0.0,0.0,0.0,0.0,0.0,0.0
1581180816660402908,399,0,,0.264967959004,-0.199763264789,-0.118635665201,-0.935848383919,0.0,0.0,0.0,0.0,0.0,0.0,0.0,0.0,0.0,-0.000137,0.0012,-2e-06,0.0,0.0,0.0,0.0,0.0,0.0,0.0,0.0,0.0,0.083,0.095,-9.779,0.0,0.0,0.0,0.0,0.0,0.0,0.0,0.0,0.0
1581180816719427939,400,0,,0.264966310239,-0.199291573595,-0.118517176709,-0.935964423446,0.0,0.0,0.0,0.0,0.0,0.0,0.0,0.0,0.0,0.000329,-0.00013,-0.000195,0.0,0.0,0.0,0.0,0.0,0.0,0.0,0.0,0.0,0.075,0.105,-9.793,0.0,0.0,0.0,0.0,0.0,0.0,0.0,0.0,0.0
1581180816776975077,401,0,,0.26573280902,-0.198833914722,-0.120020421442,-0.935652845346,0.0,0.0,0.0,0.0,0.0,0.0,0.0,0.0,0.0,0.000349,-0.002386,-0.000567,0.0,0.0,0.0,0.0,0.0,0.0,0.0,0.0,0.0,0.086,0.074,-9.779,0.0,0.0,0.0,0.0,0.0,0.0,0.0,0.0,0.0
1581180816834934636,402,0,,0.265735107211,-0.199305543695,-0.120138971571,-0.935536627053,0.0,0.0,0.0,0.0,0.0,0.0,0.0,0.0,0.0,-0.000983,-0.001493,0.000319,0.0,0.0,0.0,0.0,0.0,0.0,0.0,0.0,0.0,0.083,0.1,-9.766,0.0,0.0,0.0,0.0,0.0,0.0,0.0,0.0,0.0
1581180816895207558,403,0,,0.265837194308,-0.199644229206,-0.1207251867,-0.935359929205,0.0,0.0,0.0,0.0,0.0,0.0,0.0,0.0,0.0,0.000183,-0.000128,-0.000581,0.0,0.0,0.0,0.0,0.0,0.0,0.0,0.0,0.0,0.099,0.091,-9.776,0.0,0.0,0.0,0.0,0.0,0.0,0.0,0.0,0.0
1581180816950492014,404,0,,0.266311669434,-0.20099809786,-0.121180905246,-0.934875953046,0.0,0.0,0.0,0.0,0.0,0.0,0.0,0.0,0.0,-0.001312,0.001105,1.4e-05,0.0,0.0,0.0,0.0,0.0,0.0,0.0,0.0,0.0,0.077,0.087,-9.829,0.0,0.0,0.0,0.0,0.0,0.0,0.0,0.0,0.0
1581180817010273566,405,0,,0.266515148642,-0.201203001748,-0.12223417957,-0.934636738512,0.0,0.0,0.0,0.0,0.0,0.0,0.0,0.0,0.0,-0.000624,0.001059,0.000204,0.0,0.0,0.0,0.0,0.0,0.0,0.0,0.0,0.0,0.086,0.099,-9.783,0.0,0.0,0.0,0.0,0.0,0.0,0.0,0.0,0.0
1581180817066521739,406,0,,0.267552824308,-0.201418062806,-0.123021331824,-0.934190559841,0.0,0.0,0.0,0.0,0.0,0.0,0.0,0.0,0.0,-0.00104,-0.000941,0.001346,0.0,0.0,0.0,0.0,0.0,0.0,0.0,0.0,0.0,0.1,0.1,-9.774,0.0,0.0,0.0,0.0,0.0,0.0,0.0,0.0,0.0
1581180817123871432,407,0,,0.267351272502,-0.201685514877,-0.122087079909,-0.934313114057,0.0,0.0,0.0,0.0,0.0,0.0,0.0,0.0,0.0,-0.000954,-0.000924,0.000767,0.0,0.0,0.0,0.0,0.0,0.0,0.0,0.0,0.0,0.075,0.08,-9.78,0.0,0.0,0.0,0.0,0.0,0.0,0.0,0.0,0.0
1581180817186147970,408,0,,0.266886268991,-0.202217690391,-0.122104914461,-0.934328697505,0.0,0.0,0.0,0.0,0.0,0.0,0.0,0.0,0.0,-0.000118,0.001199,-0.000158,0.0,0.0,0.0,0.0,0.0,0.0,0.0,0.0,0.0,0.087,0.084,-9.784,0.0,0.0,0.0,0.0,0.0,0.0,0.0,0.0,0.0
1581180817246940799,409,0,,0.267355460579,-0.202627659903,-0.122324905617,-0.934076927564,0.0,0.0,0.0,0.0,0.0,0.0,0.0,0.0,0.0,0.001267,0.000533,-0.000487,0.0,0.0,0.0,0.0,0.0,0.0,0.0,0.0,0.0,0.061,0.1,-9.77,0.0,0.0,0.0,0.0,0.0,0.0,0.0,0.0,0.0
1581180817467122029,410,0,,0.2637862678,-0.210171455123,-0.117626187104,-0.934028288907,0.0,0.0,0.0,0.0,0.0,0.0,0.0,0.0,0.0,-0.000213,-0.001235,0.000173,0.0,0.0,0.0,0.0,0.0,0.0,0.0,0.0,0.0,0.076,0.071,-9.818,0.0,0.0,0.0,0.0,0.0,0.0,0.0,0.0,0.0
1581180817524839597,411,0,,0.263681149104,-0.21030332198,-0.117159158276,-0.934086985245,0.0,0.0,0.0,0.0,0.0,0.0,0.0,0.0,0.0,0.000185,0.000557,0.000181,0.0,0.0,0.0,0.0,0.0,0.0,0.0,0.0,0.0,0.091,0.084,-9.818,0.0,0.0,0.0,0.0,0.0,0.0,0.0,0.0,0.0
1581180817585032944,412,0,,0.263468678695,-0.211037570203,-0.116343240248,-0.934083320565,0.0,0.0,0.0,0.0,0.0,0.0,0.0,0.0,0.0,-0.000578,0.001122,-0.000752,0.0,0.0,0.0,0.0,0.0,0.0,0.0,0.0,0.0,0.072,0.081,-9.79,0.0,0.0,0.0,0.0,0.0,0.0,0.0,0.0,0.0
1581180817642206659,413,0,,0.262687345987,-0.211019252384,-0.114718081841,-0.934508424296,0.0,0.0,0.0,0.0,0.0,0.0,0.0,0.0,0.0,0.000752,0.000399,-0.000509,0.0,0.0,0.0,0.0,0.0,0.0,0.0,0.0,0.0,0.072,0.095,-9.79,0.0,0.0,0.0,0.0,0.0,0.0,0.0,0.0,0.0
1581180817702380640,414,0,,0.263262455516,-0.210359540613,-0.115172374731,-0.934439440139,0.0,0.0,0.0,0.0,0.0,0.0,0.0,0.0,0.0,0.000665,0.002691,0.000439,0.0,0.0,0.0,0.0,0.0,0.0,0.0,0.0,0.0,0.068,0.071,-9.776,0.0,0.0,0.0,0.0,0.0,0.0,0.0,0.0,0.0
1581180817763688955,415,0,,0.263151826056,-0.211432535656,-0.114941984907,-0.934256784517,0.0,0.0,0.0,0.0,0.0,0.0,0.0,0.0,0.0,-0.000541,0.000675,0.001758,0.0,0.0,0.0,0.0,0.0,0.0,0.0,0.0,0.0,0.059,0.057,-9.787,0.0,0.0,0.0,0.0,0.0,0.0,0.0,0.0,0.0
1581180817820656100,416,0,,0.26289823386,-0.210756459572,-0.115652532751,-0.934393238979,0.0,0.0,0.0,0.0,0.0,0.0,0.0,0.0,0.0,0.000607,0.000667,0.000989,0.0,0.0,0.0,0.0,0.0,0.0,0.0,0.0,0.0,0.081,0.077,-9.764,0.0,0.0,0.0,0.0,0.0,0.0,0.0,0.0,0.0
1581180817878149812,417,0,,0.263784938529,-0.210642129916,-0.117744233817,-0.933907754927,0.0,0.0,0.0,0.0,0.0,0.0,0.0,0.0,0.0,0.000507,0.00248,0.00039,0.0,0.0,0.0,0.0,0.0,0.0,0.0,0.0,0.0,0.09,0.106,-9.779,0.0,0.0,0.0,0.0,0.0,0.0,0.0,0.0,0.0
1581180817934161804,418,0,,0.263890226617,-0.210510211122,-0.118211172957,-0.933848766074,0.0,0.0,0.0,0.0,0.0,0.0,0.0,0.0,0.0,-0.001197,0.000714,7e-05,0.0,0.0,0.0,0.0,0.0,0.0,0.0,0.0,0.0,0.071,0.11,-9.8,0.0,0.0,0.0,0.0,0.0,0.0,0.0,0.0,0.0
1581180817992887927,419,0,,0.263890226617,-0.210510211122,-0.118211172957,-0.933848766074,0.0,0.0,0.0,0.0,0.0,0.0,0.0,0.0,0.0,1e-05,0.000491,0.00131,0.0,0.0,0.0,0.0,0.0,0.0,0.0,0.0,0.0,0.075,0.094,-9.817,0.0,0.0,0.0,0.0,0.0,0.0,0.0,0.0,0.0
1581180818051880787,420,0,,0.264100604848,-0.210246215684,-0.119144962462,-0.933730087996,0.0,0.0,0.0,0.0,0.0,0.0,0.0,0.0,0.0,-0.000791,0.000881,0.000157,0.0,0.0,0.0,0.0,0.0,0.0,0.0,0.0,0.0,0.068,0.11,-9.788,0.0,0.0,0.0,0.0,0.0,0.0,0.0,0.0,0.0
1581180818107489526,421,0,,0.264460274294,-0.211259950238,-0.119019490595,-0.933415426059,0.0,0.0,0.0,0.0,0.0,0.0,0.0,0.0,0.0,0.000144,-0.000679,0.000983,0.0,0.0,0.0,0.0,0.0,0.0,0.0,0.0,0.0,0.091,0.096,-9.812,0.0,0.0,0.0,0.0,0.0,0.0,0.0,0.0,0.0
1581180818168007409,422,0,,0.264354611266,-0.211392153962,-0.118552768024,-0.933474819124,0.0,0.0,0.0,0.0,0.0,0.0,0.0,0.0,0.0,0.001116,-0.001917,0.00063,0.0,0.0,0.0,0.0,0.0,0.0,0.0,0.0,0.0,0.092,0.086,-9.773,0.0,0.0,0.0,0.0,0.0,0.0,0.0,0.0,0.0
1581180818225658972,423,0,,0.264099160257,-0.211187410397,-0.119380604633,-0.933487965899,0.0,0.0,0.0,0.0,0.0,0.0,0.0,0.0,0.0,-0.000686,0.000447,-0.001266,0.0,0.0,0.0,0.0,0.0,0.0,0.0,0.0,0.0,0.073,0.102,-9.762,0.0,0.0,0.0,0.0,0.0,0.0,0.0,0.0,0.0
1581180818284898961,424,0,,0.264671401979,-0.210995384378,-0.119952846356,-0.93329593988,0.0,0.0,0.0,0.0,0.0,0.0,0.0,0.0,0.0,-0.000528,0.000998,0.00016,0.0,0.0,0.0,0.0,0.0,0.0,0.0,0.0,0.0,0.066,0.086,-9.776,0.0,0.0,0.0,0.0,0.0,0.0,0.0,0.0,0.0
1581180818342697596,425,0,,0.264882088644,-0.211201067589,-0.121003911491,-0.933053932829,0.0,0.0,0.0,0.0,0.0,0.0,0.0,0.0,0.0,0.000138,-0.000133,0.00059,0.0,0.0,0.0,0.0,0.0,0.0,0.0,0.0,0.0,0.096,0.095,-9.794,0.0,0.0,0.0,0.0,0.0,0.0,0.0,0.0,0.0
1581180818402336465,426,0,,0.264626302923,-0.210526503224,-0.121713949052,-0.93318659755,0.0,0.0,0.0,0.0,0.0,0.0,0.0,0.0,0.0,0.000589,0.000532,0.000736,0.0,0.0,0.0,0.0,0.0,0.0,0.0,0.0,0.0,0.073,0.077,-9.797,0.0,0.0,0.0,0.0,0.0,0.0,0.0,0.0,0.0
1581180818461336758,427,0,,0.264264937208,-0.210455227724,-0.122075314767,-0.93325787305,0.0,0.0,0.0,0.0,0.0,0.0,0.0,0.0,0.0,0.000845,0.000798,-0.00084,0.0,0.0,0.0,0.0,0.0,0.0,0.0,0.0,0.0,0.072,0.107,-9.785,0.0,0.0,0.0,0.0,0.0,0.0,0.0,0.0,0.0
1581180818521410192,428,0,,0.264368160719,-0.209381757671,-0.12230760575,-0.933439663143,0.0,0.0,0.0,0.0,0.0,0.0,0.0,0.0,0.0,0.000144,-0.000317,0.000636,0.0,0.0,0.0,0.0,0.0,0.0,0.0,0.0,0.0,0.082,0.084,-9.802,0.0,0.0,0.0,0.0,0.0,0.0,0.0,0.0,0.0
1581180818585679399,429,0,,0.264786395219,-0.208852602938,-0.124174239216,-0.933193181216,0.0,0.0,0.0,0.0,0.0,0.0,0.0,0.0,0.0,0.001413,0.000286,0.000338,0.0,0.0,0.0,0.0,0.0,0.0,0.0,0.0,0.0,0.07,0.097,-9.788,0.0,0.0,0.0,0.0,0.0,0.0,0.0,0.0,0.0
1581180818643320033,430,0,,0.264523366682,-0.207708613307,-0.124769813553,-0.933443631969,0.0,0.0,0.0,0.0,0.0,0.0,0.0,0.0,0.0,0.000235,-0.000613,0.000256,0.0,0.0,0.0,0.0,0.0,0.0,0.0,0.0,0.0,0.075,0.067,-9.806,0.0,0.0,0.0,0.0,0.0,0.0,0.0,0.0,0.0
1581180818700110413,431,0,,0.264371361794,-0.207845546694,-0.126182388291,-0.933266316047,0.0,0.0,0.0,0.0,0.0,0.0,0.0,0.0,0.0,-6.6e-05,-3.7e-05,-0.000833,0.0,0.0,0.0,0.0,0.0,0.0,0.0,0.0,0.0,0.067,0.079,-9.809,0.0,0.0,0.0,0.0,0.0,0.0,0.0,0.0,0.0
1581180818759560845,432,0,,0.26436451431,-0.206903708934,-0.125949913283,-0.933508906303,0.0,0.0,0.0,0.0,0.0,0.0,0.0,0.0,0.0,0.001818,0.000646,-0.000391,0.0,0.0,0.0,0.0,0.0,0.0,0.0,0.0,0.0,0.059,0.097,-9.8,0.0,0.0,0.0,0.0,0.0,0.0,0.0,0.0,0.0
1581180818818372210,433,0,,0.264261029414,-0.207035865323,-0.125483143106,-0.933571764568,0.0,0.0,0.0,0.0,0.0,0.0,0.0,0.0,0.0,-0.000304,0.000149,-0.000183,0.0,0.0,0.0,0.0,0.0,0.0,0.0,0.0,0.0,0.074,0.117,-9.802,0.0,0.0,0.0,0.0,0.0,0.0,0.0,0.0,0.0
1581180818877433870,434,0,,0.264831235698,-0.206840708117,-0.12605334939,-0.933376607363,0.0,0.0,0.0,0.0,0.0,0.0,0.0,0.0,0.0,0.001106,-0.00115,0.000229,0.0,0.0,0.0,0.0,0.0,0.0,0.0,0.0,0.0,0.079,0.078,-9.805,0.0,0.0,0.0,0.0,0.0,0.0,0.0,0.0,0.0
1581180818936251294,435,0,,0.26504181104,-0.20704665649,-0.127103030296,-0.93312879075,0.0,0.0,0.0,0.0,0.0,0.0,0.0,0.0,0.0,-0.000396,0.002414,-0.000494,0.0,0.0,0.0,0.0,0.0,0.0,0.0,0.0,0.0,0.069,0.082,-9.811,0.0,0.0,0.0,0.0,0.0,0.0,0.0,0.0,0.0
1581180818992677442,436,0,,0.26540124654,-0.206644980803,-0.126623360231,-0.933180880048,0.0,0.0,0.0,0.0,0.0,0.0,0.0,0.0,0.0,-0.000242,-0.001158,0.001194,0.0,0.0,0.0,0.0,0.0,0.0,0.0,0.0,0.0,0.064,0.075,-9.798,0.0,0.0,0.0,0.0,0.0,0.0,0.0,0.0,0.0
1581180819050841605,437,0,,0.265034010613,-0.206104838876,-0.126870263586,-0.93337115063,0.0,0.0,0.0,0.0,0.0,0.0,0.0,0.0,0.0,-0.00029,0.000124,-0.001025,0.0,0.0,0.0,0.0,0.0,0.0,0.0,0.0,0.0,0.085,0.088,-9.785,0.0,0.0,0.0,0.0,0.0,0.0,0.0,0.0,0.0
1581180819109578183,438,0,,0.264571285802,-0.206639241012,-0.126883359059,-0.933382489656,0.0,0.0,0.0,0.0,0.0,0.0,0.0,0.0,0.0,-0.001242,0.000973,0.00033,0.0,0.0,0.0,0.0,0.0,0.0,0.0,0.0,0.0,0.094,0.101,-9.779,0.0,0.0,0.0,0.0,0.0,0.0,0.0,0.0,0.0
1581180819165717344,439,0,,0.264571285802,-0.206639241012,-0.126883359059,-0.933382489656,0.0,0.0,0.0,0.0,0.0,0.0,0.0,0.0,0.0,-0.000592,-0.000865,-0.000462,0.0,0.0,0.0,0.0,0.0,0.0,0.0,0.0,0.0,0.064,0.066,-9.814,0.0,0.0,0.0,0.0,0.0,0.0,0.0,0.0,0.0
1581180819227170461,440,0,,0.264567291928,-0.206168248242,-0.126767195312,-0.933503550958,0.0,0.0,0.0,0.0,0.0,0.0,0.0,0.0,0.0,1.3e-05,0.000716,5.4e-05,0.0,0.0,0.0,0.0,0.0,0.0,0.0,0.0,0.0,0.098,0.082,-9.811,0.0,0.0,0.0,0.0,0.0,0.0,0.0,0.0,0.0
1581180819282082131,441,0,,0.264464174738,-0.206300506112,-0.12630042771,-0.933566817865,0.0,0.0,0.0,0.0,0.0,0.0,0.0,0.0,0.0,-0.00012,0.000252,-9e-05,0.0,0.0,0.0,0.0,0.0,0.0,0.0,0.0,0.0,0.064,0.09,-9.769,0.0,0.0,0.0,0.0,0.0,0.0,0.0,0.0,0.0
1581180819342272924,442,0,,0.265141198709,-0.206443228717,-0.127453271966,-0.933186477361,0.0,0.0,0.0,0.0,0.0,0.0,0.0,0.0,0.0,-0.001068,0.000906,0.000123,0.0,0.0,0.0,0.0,0.0,0.0,0.0,0.0,0.0,0.076,0.097,-9.793,0.0,0.0,0.0,0.0,0.0,0.0,0.0,0.0,0.0
1581180819399027416,443,0,,0.264837961887,-0.207782429522,-0.126286295287,-0.933134013713,0.0,0.0,0.0,0.0,0.0,0.0,0.0,0.0,0.0,-0.00062,0.001211,4.1e-05,0.0,0.0,0.0,0.0,0.0,0.0,0.0,0.0,0.0,0.047,0.106,-9.771,0.0,0.0,0.0,0.0,0.0,0.0,0.0,0.0,0.0
1581180819457346669,444,0,,0.265301226487,-0.207248483903,-0.126273478131,-0.933122893227,0.0,0.0,0.0,0.0,0.0,0.0,0.0,0.0,0.0,0.000261,0.000125,0.0005,0.0,0.0,0.0,0.0,0.0,0.0,0.0,0.0,0.0,0.084,0.072,-9.788,0.0,0.0,0.0,0.0,0.0,0.0,0.0,0.0,0.0
1581180819514785959,445,0,,0.264734037571,-0.207914822525,-0.125819712514,-0.933197040216,0.0,0.0,0.0,0.0,0.0,0.0,0.0,0.0,0.0,0.000527,0.001522,-0.000411,0.0,0.0,0.0,0.0,0.0,0.0,0.0,0.0,0.0,0.095,0.088,-9.779,0.0,0.0,0.0,0.0,0.0,0.0,0.0,0.0,0.0
1581180819572888114,446,0,,0.264934622944,-0.20670826665,-0.126520021917,-0.933313464019,0.0,0.0,0.0,0.0,0.0,0.0,0.0,0.0,0.0,0.000342,-0.00125,0.000424,0.0,0.0,0.0,0.0,0.0,0.0,0.0,0.0,0.0,0.097,0.094,-9.805,0.0,0.0,0.0,0.0,0.0,0.0,0.0,0.0,0.0
1581180819632346935,447,0,,0.265607758786,-0.206379476278,-0.127556477644,-0.933053790119,0.0,0.0,0.0,0.0,0.0,0.0,0.0,0.0,0.0,-0.000215,0.000253,-0.001297,0.0,0.0,0.0,0.0,0.0,0.0,0.0,0.0,0.0,0.086,0.075,-9.806,0.0,0.0,0.0,0.0,0.0,0.0,0.0,0.0,0.0
1581180819689806593,448,0,,0.265248725141,-0.2067815112,-0.12803609538,-0.933001221177,0.0,0.0,0.0,0.0,0.0,0.0,0.0,0.0,0.0,0.000472,-0.001111,0.000819,0.0,0.0,0.0,0.0,0.0,0.0,0.0,0.0,0.0,0.065,0.079,-9.783,0.0,0.0,0.0,0.0,0.0,0.0,0.0,0.0,0.0
1581180819749569904,449,0,,0.265037943956,-0.206575773505,-0.126986662815,-0.933250087346,0.0,0.0,0.0,0.0,0.0,0.0,0.0,0.0,0.0,-0.000529,-0.00049,-5.9e-05,0.0,0.0,0.0,0.0,0.0,0.0,0.0,0.0,0.0,0.103,0.082,-9.793,0.0,0.0,0.0,0.0,0.0,0.0,0.0,0.0,0.0
1581180819808003272,450,0,,0.265045611862,-0.207517487713,-0.127219366002,-0.933007260872,0.0,0.0,0.0,0.0,0.0,0.0,0.0,0.0,0.0,0.000521,-0.00275,0.000174,0.0,0.0,0.0,0.0,0.0,0.0,0.0,0.0,0.0,0.08,0.082,-9.775,0.0,0.0,0.0,0.0,0.0,0.0,0.0,0.0,0.0
1581180819865978228,451,0,,0.265145301233,-0.206914109709,-0.127569578784,-0.933065122596,0.0,0.0,0.0,0.0,0.0,0.0,0.0,0.0,0.0,0.00046,0.000382,-0.000408,0.0,0.0,0.0,0.0,0.0,0.0,0.0,0.0,0.0,0.072,0.063,-9.776,0.0,0.0,0.0,0.0,0.0,0.0,0.0,0.0,0.0
1581180819926448266,452,0,,0.265145301233,-0.206914109709,-0.127569578784,-0.933065122596,0.0,0.0,0.0,0.0,0.0,0.0,0.0,0.0,0.0,-0.000816,-0.000413,-0.000117,0.0,0.0,0.0,0.0,0.0,0.0,0.0,0.0,0.0,0.084,0.084,-9.786,0.0,0.0,0.0,0.0,0.0,0.0,0.0,0.0,0.0
1581180819984274552,453,0,,0.265149337471,-0.207384938973,-0.127685853711,-0.932943534566,0.0,0.0,0.0,0.0,0.0,0.0,0.0,0.0,0.0,-0.000718,-0.000157,0.000253,0.0,0.0,0.0,0.0,0.0,0.0,0.0,0.0,0.0,0.071,0.064,-9.784,0.0,0.0,0.0,0.0,0.0,0.0,0.0,0.0,0.0
1581180820043626382,454,0,,0.264579075121,-0.207581071454,-0.12711559136,-0.933139667046,0.0,0.0,0.0,0.0,0.0,0.0,0.0,0.0,0.0,1.6e-05,-0.000467,0.001272,0.0,0.0,0.0,0.0,0.0,0.0,0.0,0.0,0.0,0.065,0.081,-9.793,0.0,0.0,0.0,0.0,0.0,0.0,0.0,0.0,0.0
1581180820100448511,455,0,,0.264790790146,-0.207787222038,-0.128164613992,-0.932890207651,0.0,0.0,0.0,0.0,0.0,0.0,0.0,0.0,0.0,-3.9e-05,0.000345,-0.000196,0.0,0.0,0.0,0.0,0.0,0.0,0.0,0.0,0.0,0.077,0.102,-9.793,0.0,0.0,0.0,0.0,0.0,0.0,0.0,0.0,0.0
1581180820160730423,456,0,,0.265261341156,-0.208193837204,-0.128384641591,-0.932635583088,0.0,0.0,0.0,0.0,0.0,0.0,0.0,0.0,0.0,6.8e-05,0.001221,-0.00054,0.0,0.0,0.0,0.0,0.0,0.0,0.0,0.0,0.0,0.087,0.083,-9.793,0.0,0.0,0.0,0.0,0.0,0.0,0.0,0.0,0.0
1581180820220915642,457,0,,0.264645660017,-0.208396171109,-0.129691052985,-0.932584549131,0.0,0.0,0.0,0.0,0.0,0.0,0.0,0.0,0.0,0.000805,0.000804,0.000287,0.0,0.0,0.0,0.0,0.0,0.0,0.0,0.0,0.0,0.061,0.092,-9.787,0.0,0.0,0.0,0.0,0.0,0.0,0.0,0.0,0.0
1581180820280460853,458,0,,0.265111919191,-0.208331299536,-0.129795234854,-0.932452109733,0.0,0.0,0.0,0.0,0.0,0.0,0.0,0.0,0.0,-0.001307,0.000178,-0.000312,0.0,0.0,0.0,0.0,0.0,0.0,0.0,0.0,0.0,0.066,0.089,-9.788,0.0,0.0,0.0,0.0,0.0,0.0,0.0,0.0,0.0
1581180820377206854,459,0,,0.263308811177,-0.199624507959,-0.136710005066,-0.933878418368,0.0,0.0,0.0,0.0,0.0,0.0,0.0,0.0,0.0,-0.000854,0.002017,-0.000238,0.0,0.0,0.0,0.0,0.0,0.0,0.0,0.0,0.0,0.079,0.073,-9.789,0.0,0.0,0.0,0.0,0.0,0.0,0.0,0.0,0.0
1581180820439303655,460,0,,0.262998822743,-0.199547416287,-0.135195788225,-0.934202626166,0.0,0.0,0.0,0.0,0.0,0.0,0.0,0.0,0.0,-0.000168,-0.000391,-0.000892,0.0,0.0,0.0,0.0,0.0,0.0,0.0,0.0,0.0,0.061,0.09,-9.798,0.0,0.0,0.0,0.0,0.0,0.0,0.0,0.0,0.0
1581180820501423908,461,0,,0.263775717453,-0.199556128006,-0.136809800227,-0.933746647233,0.0,0.0,0.0,0.0,0.0,0.0,0.0,0.0,0.0,-0.000212,0.000794,-0.000233,0.0,0.0,0.0,0.0,0.0,0.0,0.0,0.0,0.0,0.048,0.092,-9.764,0.0,0.0,0.0,0.0,0.0,0.0,0.0,0.0,0.0
1581180820560551478,462,0,,0.263508303997,-0.199361099379,-0.137643814974,-0.933741241447,0.0,0.0,0.0,0.0,0.0,0.0,0.0,0.0,0.0,0.001797,0.001062,0.000397,0.0,0.0,0.0,0.0,0.0,0.0,0.0,0.0,0.0,0.096,0.084,-9.781,0.0,0.0,0.0,0.0,0.0,0.0,0.0,0.0,0.0
1581180820616820566,463,0,,0.263875462541,-0.199424215208,-0.13727665643,-0.933678125618,0.0,0.0,0.0,0.0,0.0,0.0,0.0,0.0,0.0,-0.001918,0.000297,-0.000207,0.0,0.0,0.0,0.0,0.0,0.0,0.0,0.0,0.0,0.085,0.093,-9.775,0.0,0.0,0.0,0.0,0.0,0.0,0.0,0.0,0.0
1581180820675249784,464,0,,0.263519673224,-0.199832852589,-0.137756725665,-0.933620531792,0.0,0.0,0.0,0.0,0.0,0.0,0.0,0.0,0.0,0.00016,0.001048,-0.001002,0.0,0.0,0.0,0.0,0.0,0.0,0.0,0.0,0.0,0.075,0.1,-9.789,0.0,0.0,0.0,0.0,0.0,0.0,0.0,0.0,0.0
1581180820734532717,465,0,,0.263308811177,-0.199624507959,-0.136710005066,-0.933878418368,0.0,0.0,0.0,0.0,0.0,0.0,0.0,0.0,0.0,-0.000123,-0.001998,0.001081,0.0,0.0,0.0,0.0,0.0,0.0,0.0,0.0,0.0,0.09,0.097,-9.769,0.0,0.0,0.0,0.0,0.0,0.0,0.0,0.0,0.0
1581180820793936915,466,0,,0.263419723862,-0.199964587441,-0.137289898199,-0.93368929345,0.0,0.0,0.0,0.0,0.0,0.0,0.0,0.0,0.0,-0.000135,-0.000403,0.000475,0.0,0.0,0.0,0.0,0.0,0.0,0.0,0.0,0.0,0.072,0.09,-9.793,0.0,0.0,0.0,0.0,0.0,0.0,0.0,0.0,0.0
1581180820864918465,467,0,,0.263686507734,-0.200159704042,-0.136456237321,-0.933694389944,0.0,0.0,0.0,0.0,0.0,0.0,0.0,0.0,0.0,-0.001323,6.5e-05,0.000673,0.0,0.0,0.0,0.0,0.0,0.0,0.0,0.0,0.0,0.075,0.094,-9.778,0.0,0.0,0.0,0.0,0.0,0.0,0.0,0.0,0.0
1581180820935450855,468,0,,0.263385971643,-0.200555008476,-0.135055542748,-0.933898023817,0.0,0.0,0.0,0.0,0.0,0.0,0.0,0.0,0.0,-0.000741,-0.000399,0.000522,0.0,0.0,0.0,0.0,0.0,0.0,0.0,0.0,0.0,0.081,0.103,-9.793,0.0,0.0,0.0,0.0,0.0,0.0,0.0,0.0,0.0
1581180821004336612,469,0,,0.263775717453,-0.199556128006,-0.136809800227,-0.933746647233,0.0,0.0,0.0,0.0,0.0,0.0,0.0,0.0,0.0,0.000298,-0.002023,-7.9e-05,0.0,0.0,0.0,0.0,0.0,0.0,0.0,0.0,0.0,0.077,0.091,-9.806,0.0,0.0,0.0,0.0,0.0,0.0,0.0,0.0,0.0
1581180821078197908,470,0,,0.263607951604,-0.199229320312,-0.138110668369,-0.933672302824,0.0,0.0,0.0,0.0,0.0,0.0,0.0,0.0,0.0,-0.000269,-0.001666,0.000622,0.0,0.0,0.0,0.0,0.0,0.0,0.0,0.0,0.0,0.075,0.062,-9.781,0.0,0.0,0.0,0.0,0.0,0.0,0.0,0.0,0.0
1581180821134010210,471,0,,0.262830815598,-0.199220967283,-0.136497346126,-0.93413031375,0.0,0.0,0.0,0.0,0.0,0.0,0.0,0.0,0.0,0.001383,-0.000793,0.000144,0.0,0.0,0.0,0.0,0.0,0.0,0.0,0.0,0.0,0.074,0.08,-9.787,0.0,0.0,0.0,0.0,0.0,0.0,0.0,0.0,0.0
1581180821192980340,472,0,,0.263315777204,-0.198091377033,-0.138719679862,-0.933906557553,0.0,0.0,0.0,0.0,0.0,0.0,0.0,0.0,0.0,-0.001163,-0.000825,0.000434,0.0,0.0,0.0,0.0,0.0,0.0,0.0,0.0,0.0,0.097,0.084,-9.818,0.0,0.0,0.0,0.0,0.0,0.0,0.0,0.0,0.0
1581180821251106850,473,0,,0.263881675568,-0.197890076338,-0.139285578226,-0.933705256858,0.0,0.0,0.0,0.0,0.0,0.0,0.0,0.0,0.0,0.000856,0.001321,-0.000644,0.0,0.0,0.0,0.0,0.0,0.0,0.0,0.0,0.0,0.057,0.111,-9.82,0.0,0.0,0.0,0.0,0.0,0.0,0.0,0.0,0.0
1581180821312324811,474,0,,0.264066451168,-0.197154230209,-0.14010656038,-0.93368585221,0.0,0.0,0.0,0.0,0.0,0.0,0.0,0.0,0.0,-0.000329,-0.001143,-0.000465,0.0,0.0,0.0,0.0,0.0,0.0,0.0,0.0,0.0,0.064,0.109,-9.809,0.0,0.0,0.0,0.0,0.0,0.0,0.0,0.0,0.0
1581180821371932862,475,0,,0.263967841049,-0.197286238785,-0.13963969996,-0.933755788776,0.0,0.0,0.0,0.0,0.0,0.0,0.0,0.0,0.0,-0.00019,-0.001768,-6.8e-05,0.0,0.0,0.0,0.0,0.0,0.0,0.0,0.0,0.0,0.074,0.084,-9.788,0.0,0.0,0.0,0.0,0.0,0.0,0.0,0.0,0.0
1581180821432307147,476,0,,0.263967841049,-0.197286238785,-0.13963969996,-0.933755788776,0.0,0.0,0.0,0.0,0.0,0.0,0.0,0.0,0.0,-0.000807,-1.6e-05,-7.9e-05,0.0,0.0,0.0,0.0,0.0,0.0,0.0,0.0,0.0,0.077,0.072,-9.807,0.0,0.0,0.0,0.0,0.0,0.0,0.0,0.0,0.0
1581180821489950561,477,0,,0.26407943367,-0.197626095762,-0.140219213684,-0.933565504451,0.0,0.0,0.0,0.0,0.0,0.0,0.0,0.0,0.0,0.001029,0.001084,-0.000524,0.0,0.0,0.0,0.0,0.0,0.0,0.0,0.0,0.0,0.07,0.087,-9.813,0.0,0.0,0.0,0.0,0.0,0.0,0.0,0.0,0.0
1581180821547583139,478,0,,0.263980587617,-0.19775811077,-0.139752413424,-0.933635497359,0.0,0.0,0.0,0.0,0.0,0.0,0.0,0.0,0.0,6.6e-05,0.000277,-9.1e-05,0.0,0.0,0.0,0.0,0.0,0.0,0.0,0.0,0.0,0.067,0.104,-9.821,0.0,0.0,0.0,0.0,0.0,0.0,0.0,0.0,0.0
1581180821607035170,479,0,,0.264360879616,-0.198292181214,-0.139497480523,-0.933452724634,0.0,0.0,0.0,0.0,0.0,0.0,0.0,0.0,0.0,-0.001255,0.000835,0.000561,0.0,0.0,0.0,0.0,0.0,0.0,0.0,0.0,0.0,0.079,0.086,-9.775,0.0,0.0,0.0,0.0,0.0,0.0,0.0,0.0,0.0
1581180821663926867,480,0,,0.264559039583,-0.198027721232,-0.140430863344,-0.93331276045,0.0,0.0,0.0,0.0,0.0,0.0,0.0,0.0,0.0,-0.000371,5e-05,1.8e-05,0.0,0.0,0.0,0.0,0.0,0.0,0.0,0.0,0.0,0.088,0.095,-9.82,0.0,0.0,0.0,0.0,0.0,0.0,0.0,0.0,0.0
1581180821724111413,481,0,,0.263918811623,-0.199305413928,-0.139623689971,-0.933343151284,0.0,0.0,0.0,0.0,0.0,0.0,0.0,0.0,0.0,0.000398,0.001881,-0.000652,0.0,0.0,0.0,0.0,0.0,0.0,0.0,0.0,0.0,0.096,0.083,-9.788,0.0,0.0,0.0,0.0,0.0,0.0,0.0,0.0,0.0
1581180821782416409,482,0,,0.26398645053,-0.199763949249,-0.137856624868,-0.933488655259,0.0,0.0,0.0,0.0,0.0,0.0,0.0,0.0,0.0,2e-06,-0.001764,0.000605,0.0,0.0,0.0,0.0,0.0,0.0,0.0,0.0,0.0,0.078,0.076,-9.759,0.0,0.0,0.0,0.0,0.0,0.0,0.0,0.0,0.0
1581180821842844177,483,0,,0.263408590513,-0.199492828605,-0.137176927167,-0.933809946634,0.0,0.0,0.0,0.0,0.0,0.0,0.0,0.0,0.0,0.000581,-0.000394,0.001284,0.0,0.0,0.0,0.0,0.0,0.0,0.0,0.0,0.0,0.099,0.098,-9.803,0.0,0.0,0.0,0.0,0.0,0.0,0.0,0.0,0.0
1581180821901406396,484,0,,0.263419723862,-0.199964587441,-0.137289898199,-0.93368929345,0.0,0.0,0.0,0.0,0.0,0.0,0.0,0.0,0.0,-0.000285,-0.00092,-0.000532,0.0,0.0,0.0,0.0,0.0,0.0,0.0,0.0,0.0,0.055,0.073,-9.817,0.0,0.0,0.0,0.0,0.0,0.0,0.0,0.0,0.0
1581180821959437076,485,0,,0.263419723862,-0.199964587441,-0.137289898199,-0.93368929345,0.0,0.0,0.0,0.0,0.0,0.0,0.0,0.0,0.0,0.000659,7.2e-05,-0.000256,0.0,0.0,0.0,0.0,0.0,0.0,0.0,0.0,0.0,0.083,0.067,-9.776,0.0,0.0,0.0,0.0,0.0,0.0,0.0,0.0,0.0
1581180822017709497,486,0,,0.263906498914,-0.1988336844,-0.139511020924,-0.933464086518,0.0,0.0,0.0,0.0,0.0,0.0,0.0,0.0,0.0,0.000673,0.000791,-0.000624,0.0,0.0,0.0,0.0,0.0,0.0,0.0,0.0,0.0,0.067,0.079,-9.818,0.0,0.0,0.0,0.0,0.0,0.0,0.0,0.0,0.0
1581180822075273441,487,0,,0.263707533309,-0.199097491438,-0.138577487238,-0.933603130784,0.0,0.0,0.0,0.0,0.0,0.0,0.0,0.0,0.0,-0.001651,-0.000387,0.000945,0.0,0.0,0.0,0.0,0.0,0.0,0.0,0.0,0.0,0.096,0.098,-9.794,0.0,0.0,0.0,0.0,0.0,0.0,0.0,0.0,0.0
